"time_trame";"num_sv";"hdop";"error_gps";"bpm";"error_cardio";"is_in_charge";"battery";"latitude_1";"latitude_2";"latitude_3";"latitude_4";"latitude_5";"latitude_6";"latitude_7";"latitude_8";"latitude_9";"latitude_10";"longitude_1";"longitude_2";"longitude_3";"longitude_4";"longitude_5";"longitude_6";"longitude_7";"longitude_8";"longitude_9";"longitude_10";"speed_1";"speed_2";"speed_3";"speed_4";"speed_5";"speed_6";"speed_7";"speed_8";"speed_9";"speed_10";"acc_x_1";"acc_y_1";"acc_z_1";"acc_x_2";"acc_y_2";"acc_z_2";"acc_x_3";"acc_y_3";"acc_z_3";"acc_x_4";"acc_y_4";"acc_z_4";"acc_x_5";"acc_y_5";"acc_z_5";"acc_x_6";"acc_y_6";"acc_z_6";"acc_x_7";"acc_y_7";"acc_z_7";"acc_x_8";"acc_y_8";"acc_z_8";"acc_x_9";"acc_y_9";"acc_z_9";"acc_x_10";"acc_y_10";"acc_z_10";"acc_x_11";"acc_y_11";"acc_z_11";"acc_x_12";"acc_y_12";"acc_z_12";"acc_x_13";"acc_y_13";"acc_z_13";"acc_x_14";"acc_y_14";"acc_z_14";"acc_x_15";"acc_y_15";"acc_z_15";"acc_x_16";"acc_y_16";"acc_z_16";"acc_x_17";"acc_y_17";"acc_z_17";"acc_x_18";"acc_y_18";"acc_z_18";"acc_x_19";"acc_y_19";"acc_z_19";"acc_x_20";"acc_y_20";"acc_z_20";"acc_x_21";"acc_y_21";"acc_z_21";"acc_x_22";"acc_y_22";"acc_z_22";"acc_x_23";"acc_y_23";"acc_z_23";"acc_x_24";"acc_y_24";"acc_z_24";"acc_x_25";"acc_y_25";"acc_z_25";"acc_x_26";"acc_y_26";"acc_z_26";"acc_x_27";"acc_y_27";"acc_z_27";"acc_x_28";"acc_y_28";"acc_z_28";"acc_x_29";"acc_y_29";"acc_z_29";"acc_x_30";"acc_y_30";"acc_z_30";"acc_x_31";"acc_y_31";"acc_z_31";"acc_x_32";"acc_y_32";"acc_z_32";"acc_x_33";"acc_y_33";"acc_z_33";"acc_x_34";"acc_y_34";"acc_z_34";"acc_x_35";"acc_y_35";"acc_z_35";"acc_x_36";"acc_y_36";"acc_z_36";"acc_x_37";"acc_y_37";"acc_z_37";"acc_x_38";"acc_y_38";"acc_z_38";"acc_x_39";"acc_y_39";"acc_z_39";"acc_x_40";"acc_y_40";"acc_z_40";"acc_x_41";"acc_y_41";"acc_z_41";"acc_x_42";"acc_y_42";"acc_z_42";"acc_x_43";"acc_y_43";"acc_z_43";"acc_x_44";"acc_y_44";"acc_z_44";"acc_x_45";"acc_y_45";"acc_z_45";"acc_x_46";"acc_y_46";"acc_z_46";"acc_x_47";"acc_y_47";"acc_z_47";"acc_x_48";"acc_y_48";"acc_z_48";"acc_x_49";"acc_y_49";"acc_z_49";"acc_x_50";"acc_y_50";"acc_z_50";"acc_x_51";"acc_y_51";"acc_z_51";"acc_x_52";"acc_y_52";"acc_z_52";"acc_x_53";"acc_y_53";"acc_z_53";"acc_x_54";"acc_y_54";"acc_z_54";"acc_x_55";"acc_y_55";"acc_z_55";"acc_x_56";"acc_y_56";"acc_z_56";"acc_x_57";"acc_y_57";"acc_z_57";"acc_x_58";"acc_y_58";"acc_z_58";"acc_x_59";"acc_y_59";"acc_z_59";"acc_x_60";"acc_y_60";"acc_z_60";"acc_x_61";"acc_y_61";"acc_z_61";"acc_x_62";"acc_y_62";"acc_z_62";"acc_x_63";"acc_y_63";"acc_z_63";"acc_x_64";"acc_y_64";"acc_z_64";"acc_x_65";"acc_y_65";"acc_z_65";"acc_x_66";"acc_y_66";"acc_z_66";"acc_x_67";"acc_y_67";"acc_z_67";"acc_x_68";"acc_y_68";"acc_z_68";"acc_x_69";"acc_y_69";"acc_z_69";"acc_x_70";"acc_y_70";"acc_z_70";"acc_x_71";"acc_y_71";"acc_z_71";"acc_x_72";"acc_y_72";"acc_z_72";"acc_x_73";"acc_y_73";"acc_z_73";"acc_x_74";"acc_y_74";"acc_z_74";"acc_x_75";"acc_y_75";"acc_z_75";"acc_x_76";"acc_y_76";"acc_z_76";"acc_x_77";"acc_y_77";"acc_z_77";"acc_x_78";"acc_y_78";"acc_z_78";"acc_x_79";"acc_y_79";"acc_z_79";"acc_x_80";"acc_y_80";"acc_z_80";"gyro_x_1";"gyro_y_1";"gyro_z_1";"gyro_x_2";"gyro_y_2";"gyro_z_2";"gyro_x_3";"gyro_y_3";"gyro_z_3";"gyro_x_4";"gyro_y_4";"gyro_z_4";"gyro_x_5";"gyro_y_5";"gyro_z_5";"gyro_x_6";"gyro_y_6";"gyro_z_6";"gyro_x_7";"gyro_y_7";"gyro_z_7";"gyro_x_8";"gyro_y_8";"gyro_z_8";"gyro_x_9";"gyro_y_9";"gyro_z_9";"gyro_x_10";"gyro_y_10";"gyro_z_10";"gyro_x_11";"gyro_y_11";"gyro_z_11";"gyro_x_12";"gyro_y_12";"gyro_z_12";"gyro_x_13";"gyro_y_13";"gyro_z_13";"gyro_x_14";"gyro_y_14";"gyro_z_14";"gyro_x_15";"gyro_y_15";"gyro_z_15";"gyro_x_16";"gyro_y_16";"gyro_z_16";"gyro_x_17";"gyro_y_17";"gyro_z_17";"gyro_x_18";"gyro_y_18";"gyro_z_18";"gyro_x_19";"gyro_y_19";"gyro_z_19";"gyro_x_20";"gyro_y_20";"gyro_z_20";"mag_x_1";"mag_y_1";"mag_z_1";"mag_x_2";"mag_y_2";"mag_z_2";"mag_x_3";"mag_y_3";"mag_z_3";"mag_x_4";"mag_y_4";"mag_z_4";"mag_x_5";"mag_y_5";"mag_z_5";"mag_x_6";"mag_y_6";"mag_z_6";"mag_x_7";"mag_y_7";"mag_z_7";"mag_x_8";"mag_y_8";"mag_z_8";"mag_x_9";"mag_y_9";"mag_z_9";"mag_x_10";"mag_y_10";"mag_z_10";"mag_x_11";"mag_y_11";"mag_z_11";"mag_x_12";"mag_y_12";"mag_z_12";"mag_x_13";"mag_y_13";"mag_z_13";"mag_x_14";"mag_y_14";"mag_z_14";"mag_x_15";"mag_y_15";"mag_z_15";"mag_x_16";"mag_y_16";"mag_z_16";"mag_x_17";"mag_y_17";"mag_z_17";"mag_x_18";"mag_y_18";"mag_z_18";"mag_x_19";"mag_y_19";"mag_z_19";"mag_x_20";"mag_y_20";"mag_z_20"
1727895262000;8;3.6;0;255;255;false;92;32.9254413;32.925435500000006;32.925429900000005;32.92543190000001;32.925430500000004;32.9254303;32.9254303;32.925431700000004;32.92542830000001;32.925423900000006;-117.2350165;-117.2350121;-117.2350103;-117.2350175;-117.2350251;-117.23502930000001;-117.2350325;-117.2350347;-117.2350377;-117.2350399;1.483;1.483;1.456;1.344;1.261;1.289;1.178;1.094;1.122;1.011;0.749568;0.0;-0.187392;0.749568;0.0;-0.187392;0.749568;0.0;-0.187392;0.749568;0.0;-0.187392;0.749568;-0.187392;-0.187392;0.749568;-0.187392;-0.187392;0.749568;-0.187392;-0.187392;0.93696;0.0;-0.187392;0.93696;0.0;-0.187392;0.93696;0.0;-0.187392;1.124352;0.0;-0.374784;0.93696;0.0;-0.187392;0.93696;0.0;-0.374784;1.124352;0.0;-0.374784;1.311744;0.0;-0.374784;1.311744;-0.187392;-0.374784;1.124352;0.0;-0.562176;1.311744;0.187392;-0.562176;1.124352;0.187392;-0.562176;1.124352;0.187392;-0.562176;0.93696;0.187392;-0.562176;0.93696;0.0;-0.562176;1.124352;0.0;-0.562176;0.93696;0.0;-0.562176;0.93696;0.0;-0.562176;0.93696;0.0;-0.562176;0.93696;0.187392;-0.562176;0.93696;0.187392;-0.374784;0.93696;0.187392;-0.374784;0.749568;0.0;-0.374784;0.749568;0.0;-0.374784;0.93696;0.0;-0.374784;0.749568;0.187392;-0.374784;0.749568;0.187392;-0.374784;0.749568;0.187392;-0.374784;0.749568;0.187392;-0.187392;0.749568;0.187392;-0.187392;0.749568;0.187392;-0.187392;0.749568;0.187392;-0.187392;0.749568;0.187392;-0.187392;0.749568;0.187392;-0.187392;0.749568;0.187392;-0.187392;0.749568;0.187392;-0.187392;0.749568;0.187392;-0.187392;0.749568;0.187392;-0.187392;0.749568;0.187392;-0.187392;0.749568;0.187392;-0.187392;0.749568;0.187392;-0.187392;0.749568;0.187392;-0.187392;0.749568;0.187392;-0.187392;0.93696;0.187392;-0.187392;0.93696;0.0;-0.374784;0.93696;0.0;-0.187392;0.93696;0.0;-0.374784;0.93696;0.0;-0.374784;1.124352;0.0;-0.187392;0.93696;0.0;-0.187392;0.749568;0.187392;-0.187392;0.93696;0.187392;-0.374784;0.93696;0.187392;-0.374784;0.93696;0.187392;-0.374784;1.311744;0.187392;-0.374784;1.311744;0.187392;-0.374784;1.311744;0.0;-0.374784;1.311744;-0.187392;-0.374784;1.311744;-0.187392;-0.374784;1.124352;-0.187392;-0.374784;0.93696;-0.187392;-0.374784;0.93696;-0.187392;-0.374784;0.93696;-0.187392;-0.562176;1.124352;0.0;-0.562176;0.93696;0.0;-0.562176;0.93696;-0.187392;-0.562176;0.93696;-0.187392;-0.374784;0.93696;-0.187392;-0.374784;0.93696;-0.187392;-0.374784;0.93696;-0.187392;-0.374784;0.93696;-0.187392;-0.374784;0.93696;-0.187392;-0.374784;0.93696;-0.187392;-0.374784;0.0;0.0;0.0;17.92;0.0;0.0;0.0;-17.92;17.92;0.0;-17.92;17.92;17.92;0.0;17.92;0.0;0.0;17.92;35.84;0.0;0.0;17.92;0.0;-17.92;17.92;0.0;-17.92;17.92;0.0;-17.92;17.92;0.0;-17.92;0.0;0.0;0.0;0.0;0.0;0.0;0.0;-17.92;0.0;0.0;-17.92;0.0;-35.84;-35.84;0.0;35.84;-35.84;35.84;-17.92;0.0;0.0;-35.84;17.92;0.0;0.0;0.0;17.92;0.29696;0.29696;0.29696;0.29696;0.29696;0.29696;0.44544;0.29696;0.29696;0.44544;0.29696;0.29696;0.44544;0.29696;0.29696;0.44544;0.29696;0.29696;0.44544;0.29696;0.44544;0.29696;0.29696;0.29696;0.29696;0.29696;0.29696;0.44544;0.29696;0.44544;0.44544;0.29696;0.29696;0.44544;0.29696;0.29696;0.44544;0.29696;0.44544;0.29696;0.29696;0.29696;0.44544;0.29696;0.44544;0.44544;0.29696;0.29696;0.44544;0.29696;0.29696;0.44544;0.29696;0.29696;0.44544;0.29696;0.29696;0.44544;0.29696;0.29696
1727895263000;9;3.2;0;255;255;false;92;32.9254206;32.925420800000005;32.9254224;32.9254218;32.9254206;32.92542;32.9254194;32.9254198;32.925421;32.925422;-117.2350442;-117.2350462;-117.2350462;-117.2350472;-117.23504439999999;-117.23504419999999;-117.23504379999999;-117.23504359999998;-117.23504519999999;-117.23504519999999;1.014;1.069;1.042;0.986;1.014;1.042;1.069;0.931;0.792;0.875;0.749568;-0.187392;-0.187392;0.749568;-0.187392;-0.187392;0.749568;-0.187392;-0.187392;0.749568;-0.187392;-0.187392;0.749568;-0.187392;-0.187392;0.749568;-0.187392;-0.187392;0.749568;0.0;-0.187392;0.749568;0.0;-0.187392;0.749568;0.0;-0.187392;0.749568;0.0;-0.187392;0.749568;-0.187392;-0.187392;0.749568;-0.187392;-0.187392;0.749568;-0.187392;-0.187392;0.749568;-0.187392;-0.187392;0.749568;-0.187392;-0.187392;0.749568;-0.187392;-0.187392;0.749568;-0.187392;-0.187392;0.749568;-0.187392;-0.187392;0.749568;-0.187392;-0.187392;0.93696;-0.187392;-0.187392;0.93696;-0.187392;-0.187392;0.93696;-0.187392;-0.187392;0.93696;0.0;-0.187392;0.93696;0.0;-0.187392;1.124352;0.0;-0.187392;1.124352;0.0;-0.374784;1.124352;0.0;-0.374784;1.311744;-0.187392;-0.374784;1.311744;0.0;-0.374784;1.124352;0.0;-0.374784;1.124352;0.0;-0.374784;1.124352;0.0;-0.374784;1.124352;0.0;-0.562176;0.93696;0.0;-0.374784;0.749568;0.0;-0.374784;0.749568;0.0;-0.562176;0.749568;0.0;-0.562176;0.93696;0.0;-0.562176;0.93696;0.0;-0.562176;0.93696;0.0;-0.562176;0.93696;0.0;-0.562176;0.93696;0.0;-0.562176;0.93696;0.0;-0.562176;0.93696;0.0;-0.374784;0.749568;0.0;-0.374784;0.749568;0.0;-0.374784;0.749568;0.0;-0.374784;0.749568;0.0;-0.374784;0.749568;0.0;-0.374784;0.749568;0.0;-0.374784;0.749568;0.0;-0.374784;0.749568;0.0;-0.374784;0.749568;0.0;-0.374784;0.749568;0.0;-0.374784;0.749568;0.0;-0.374784;0.749568;0.0;-0.374784;0.749568;0.0;-0.374784;0.749568;0.0;-0.374784;0.749568;0.0;-0.374784;0.749568;0.0;-0.374784;0.749568;0.0;-0.374784;0.749568;0.0;-0.374784;0.93696;0.0;-0.374784;0.93696;0.0;-0.374784;0.93696;0.0;-0.374784;0.93696;0.0;-0.374784;0.749568;0.0;-0.374784;0.749568;0.0;-0.374784;0.749568;0.0;-0.374784;0.749568;0.0;-0.374784;0.93696;0.0;-0.374784;0.93696;0.0;-0.374784;0.93696;0.0;-0.374784;0.93696;0.0;-0.374784;1.311744;0.0;-0.374784;1.311744;0.0;-0.374784;1.124352;-0.187392;-0.374784;0.93696;-0.187392;-0.374784;1.124352;-0.187392;-0.374784;1.124352;0.0;-0.374784;-17.92;0.0;0.0;-17.92;0.0;0.0;0.0;0.0;0.0;17.92;0.0;0.0;17.92;0.0;0.0;17.92;0.0;0.0;0.0;0.0;17.92;35.84;0.0;17.92;0.0;17.92;17.92;17.92;0.0;0.0;17.92;0.0;0.0;0.0;0.0;0.0;0.0;0.0;0.0;0.0;0.0;0.0;0.0;0.0;0.0;0.0;0.0;0.0;0.0;0.0;0.0;0.0;0.0;0.0;0.0;-17.92;0.0;17.92;0.0;0.0;0.44544;0.29696;0.29696;0.44544;0.29696;0.29696;0.44544;0.29696;0.29696;0.44544;0.29696;0.29696;0.44544;0.29696;0.29696;0.29696;0.29696;0.29696;0.44544;0.29696;0.29696;0.29696;0.29696;0.29696;0.29696;0.29696;0.29696;0.44544;0.29696;0.29696;0.44544;0.29696;0.29696;0.44544;0.29696;0.44544;0.29696;0.29696;0.44544;0.29696;0.29696;0.44544;0.29696;0.29696;0.29696;0.29696;0.29696;0.44544;0.29696;0.29696;0.44544;0.29696;0.29696;0.44544;0.29696;0.29696;0.44544;0.29696;0.29696;0.44544
1727895264000;9;3.2;0;255;255;false;92;32.9254241;32.9254271;32.9254299;32.9254323;32.9254341;32.9254355;32.9254363;32.9254375;32.9254379;32.925439499999996;-117.2350448;-117.23504419999999;-117.23504419999999;-117.2350434;-117.23504299999999;-117.2350434;-117.2350448;-117.23504679999999;-117.2350486;-117.2350486;0.806;0.944;0.833;0.806;0.833;0.833;0.861;1.0;0.889;0.944;0.93696;0.0;-0.562176;0.93696;0.0;-0.562176;0.93696;0.0;-0.562176;0.93696;0.0;-0.374784;0.749568;0.0;-0.374784;0.749568;0.0;-0.374784;0.749568;0.0;-0.374784;0.749568;0.0;-0.562176;0.749568;-0.187392;-0.562176;0.93696;-0.187392;-0.562176;0.93696;-0.187392;-0.562176;0.93696;-0.187392;-0.562176;0.93696;-0.187392;-0.374784;0.93696;-0.187392;-0.374784;0.93696;-0.187392;-0.374784;0.93696;-0.187392;-0.374784;0.93696;-0.187392;-0.374784;0.749568;-0.187392;-0.374784;0.749568;-0.187392;-0.374784;0.749568;-0.187392;-0.374784;0.749568;-0.187392;-0.374784;0.749568;0.0;-0.374784;0.749568;-0.187392;-0.374784;0.749568;-0.187392;-0.374784;0.749568;-0.187392;-0.374784;0.749568;-0.187392;-0.374784;0.749568;-0.187392;-0.374784;0.749568;-0.187392;-0.187392;0.749568;-0.187392;-0.187392;0.749568;-0.187392;-0.187392;0.749568;-0.187392;-0.187392;0.749568;-0.187392;-0.187392;0.749568;-0.187392;-0.187392;0.749568;-0.187392;-0.187392;0.749568;-0.187392;-0.187392;0.93696;-0.187392;-0.187392;0.749568;-0.187392;-0.187392;0.749568;-0.187392;-0.187392;0.749568;-0.187392;-0.187392;0.749568;-0.187392;-0.187392;0.749568;-0.187392;-0.187392;0.93696;-0.187392;-0.374784;0.93696;-0.187392;-0.187392;0.93696;-0.187392;-0.187392;0.93696;0.0;-0.187392;0.93696;0.0;-0.187392;0.93696;0.0;-0.187392;0.93696;-0.187392;-0.374784;1.124352;-0.187392;-0.374784;1.311744;-0.187392;-0.374784;1.124352;0.0;-0.374784;1.124352;0.0;-0.374784;1.124352;0.0;-0.562176;1.311744;0.0;-0.562176;1.124352;0.0;-0.562176;0.93696;0.0;-0.562176;0.93696;0.0;-0.562176;0.749568;0.0;-0.374784;0.749568;0.0;-0.374784;0.749568;0.0;-0.562176;0.93696;0.0;-0.562176;0.93696;0.0;-0.562176;0.93696;0.0;-0.562176;0.93696;0.0;-0.562176;0.93696;0.0;-0.562176;0.93696;0.0;-0.374784;0.93696;0.0;-0.374784;0.749568;0.0;-0.374784;0.749568;0.0;-0.374784;0.749568;0.0;-0.374784;0.749568;0.0;-0.374784;0.749568;0.0;-0.374784;0.749568;0.0;-0.374784;0.749568;0.0;-0.374784;0.749568;0.0;-0.374784;0.749568;0.0;-0.374784;0.749568;0.0;-0.187392;0.749568;0.0;-0.374784;0.749568;0.0;-0.374784;0.749568;0.0;-0.374784;-17.92;0.0;0.0;-17.92;0.0;0.0;-17.92;0.0;17.92;-35.84;0.0;17.92;-53.760000000000005;0.0;17.92;-35.84;0.0;17.92;-35.84;0.0;17.92;-35.84;0.0;17.92;-35.84;0.0;17.92;-35.84;0.0;17.92;-17.92;-17.92;17.92;-17.92;-17.92;17.92;0.0;-17.92;17.92;0.0;0.0;17.92;-17.92;0.0;17.92;0.0;0.0;0.0;0.0;0.0;0.0;0.0;0.0;0.0;0.0;0.0;0.0;0.0;0.0;0.0;0.29696;0.29696;0.44544;0.29696;0.29696;0.44544;0.29696;0.29696;0.44544;0.29696;0.29696;0.44544;0.29696;0.29696;0.44544;0.29696;0.29696;0.29696;0.29696;0.29696;0.29696;0.44544;0.44544;0.29696;0.29696;0.44544;0.29696;0.29696;0.44544;0.29696;0.29696;0.44544;0.29696;0.29696;0.44544;0.29696;0.29696;0.44544;0.29696;0.29696;0.44544;0.14848;0.44544;0.44544;0.29696;0.44544;0.44544;0.29696;0.29696;0.44544;0.29696;0.44544;0.44544;0.29696;0.44544;0.44544;0.29696;0.44544;0.44544;0.14848
1727895265000;9;3.2;0;255;255;false;92;32.9254396;32.9254392;32.9254398;32.9254416;32.9254436;32.9254454;32.925447;32.9254478;32.925449;32.9254498;-117.2350481;-117.2350477;-117.23504709999999;-117.23504649999998;-117.23504589999997;-117.23504509999998;-117.23504469999997;-117.23504409999997;-117.23504389999997;-117.23504349999996;0.825;0.769;0.797;0.825;0.908;0.908;0.769;0.853;0.825;0.881;0.749568;0.0;-0.374784;0.749568;0.0;-0.374784;0.749568;0.0;-0.374784;0.749568;0.0;-0.374784;0.749568;0.187392;-0.374784;0.749568;0.187392;-0.187392;0.749568;0.187392;-0.187392;0.749568;0.0;-0.374784;0.749568;0.0;-0.374784;0.749568;0.0;-0.374784;0.749568;0.0;-0.374784;0.749568;0.0;-0.374784;0.93696;0.0;-0.187392;0.93696;0.0;-0.374784;0.93696;0.0;-0.374784;0.93696;0.0;-0.374784;0.93696;0.0;-0.374784;0.93696;0.0;-0.374784;0.93696;0.0;-0.374784;1.124352;0.0;-0.374784;1.311744;0.0;-0.374784;1.124352;0.0;-0.374784;0.93696;0.0;-0.374784;1.124352;-0.187392;-0.374784;1.124352;0.0;-0.374784;1.124352;-0.187392;-0.374784;0.93696;0.0;-0.374784;0.93696;0.0;-0.374784;0.749568;0.0;-0.374784;0.749568;0.0;-0.374784;0.749568;0.0;-0.374784;0.93696;0.0;-0.374784;0.93696;0.0;-0.374784;0.93696;-0.187392;-0.562176;0.93696;-0.187392;-0.562176;0.93696;-0.187392;-0.374784;0.93696;-0.187392;-0.374784;0.93696;-0.187392;-0.374784;0.93696;-0.187392;-0.374784;0.93696;-0.187392;-0.374784;0.93696;0.0;-0.374784;0.93696;0.0;-0.374784;0.749568;0.0;-0.374784;0.749568;0.0;-0.187392;0.749568;-0.187392;-0.187392;0.749568;-0.187392;-0.187392;0.749568;-0.187392;-0.187392;0.749568;0.0;-0.187392;0.749568;0.0;-0.187392;0.749568;0.0;-0.187392;0.749568;0.0;-0.187392;0.749568;0.0;-0.187392;0.749568;-0.187392;-0.187392;0.749568;-0.187392;-0.187392;0.749568;-0.187392;-0.187392;0.749568;-0.187392;-0.187392;0.749568;-0.187392;-0.187392;0.749568;-0.187392;-0.187392;0.749568;-0.187392;-0.187392;0.749568;-0.187392;-0.187392;0.749568;-0.187392;-0.187392;0.93696;-0.187392;-0.187392;0.93696;-0.187392;-0.187392;0.93696;0.0;-0.187392;0.93696;0.0;-0.187392;0.93696;0.0;-0.187392;0.93696;0.0;-0.187392;0.93696;0.0;-0.187392;0.93696;0.0;-0.187392;1.124352;-0.187392;-0.374784;1.124352;-0.187392;-0.374784;1.124352;-0.187392;-0.374784;1.124352;0.0;-0.374784;1.124352;0.0;-0.374784;1.124352;0.0;-0.374784;1.124352;0.0;-0.374784;1.124352;0.0;-0.374784;0.93696;0.0;-0.374784;0.93696;0.0;-0.374784;0.749568;0.0;-0.374784;0.0;0.0;0.0;0.0;0.0;0.0;-17.92;0.0;0.0;0.0;-17.92;0.0;-17.92;-17.92;0.0;-35.84;-17.92;0.0;0.0;-17.92;0.0;-35.84;0.0;0.0;-35.84;0.0;17.92;-17.92;0.0;35.84;-17.92;0.0;17.92;0.0;0.0;17.92;0.0;0.0;0.0;0.0;0.0;0.0;17.92;0.0;0.0;17.92;-17.92;0.0;17.92;0.0;0.0;17.92;-17.92;0.0;35.84;0.0;0.0;17.92;0.0;0.0;0.29696;0.44544;0.14848;0.44544;0.44544;0.14848;0.44544;0.44544;0.29696;0.29696;0.44544;0.14848;0.44544;0.44544;0.14848;0.44544;0.44544;0.14848;0.44544;0.44544;0.14848;0.44544;0.44544;0.14848;0.44544;0.44544;0.14848;0.44544;0.44544;0.0;0.44544;0.44544;0.14848;0.44544;0.44544;0.0;0.44544;0.44544;0.0;0.44544;0.44544;0.14848;0.44544;0.44544;0.14848;0.44544;0.44544;0.14848;0.44544;0.44544;0.14848;0.44544;0.44544;0.14848;0.44544;0.44544;0.14848;0.44544;0.44544;0.14848
1727895266000;9;3.2;0;255;255;false;92;32.9254507;32.9254513;32.925452899999996;32.9254537;32.9254551;32.9254567;32.9254581;32.9254589;32.925459700000005;32.925460900000004;-117.2350434;-117.23504319999999;-117.23504299999999;-117.23504239999998;-117.23504199999998;-117.23504139999997;-117.23504119999997;-117.23504099999997;-117.23504099999997;-117.23504079999996;0.928;0.872;0.789;0.789;0.706;0.678;0.789;0.706;0.817;0.817;0.749568;0.0;-0.374784;0.749568;0.0;-0.374784;0.93696;0.0;-0.374784;0.93696;0.187392;-0.562176;0.93696;0.187392;-0.562176;0.93696;0.187392;-0.562176;0.93696;0.187392;-0.374784;0.93696;0.187392;-0.374784;0.93696;0.0;-0.374784;0.93696;0.0;-0.374784;0.93696;0.187392;-0.374784;0.93696;0.187392;-0.374784;0.93696;0.187392;-0.374784;0.749568;0.187392;-0.374784;0.749568;0.187392;-0.374784;0.749568;0.0;-0.374784;0.749568;0.0;-0.374784;0.749568;0.0;-0.374784;0.749568;0.0;-0.374784;0.749568;0.0;-0.374784;0.749568;0.0;-0.374784;0.749568;0.0;-0.374784;0.749568;0.0;-0.374784;0.93696;0.0;-0.374784;0.93696;0.0;-0.374784;0.93696;0.187392;-0.374784;0.749568;0.187392;-0.374784;0.93696;0.187392;-0.374784;0.93696;0.187392;-0.374784;0.93696;0.0;-0.374784;0.93696;0.0;-0.374784;0.93696;0.0;-0.374784;0.93696;0.0;-0.374784;0.93696;0.187392;-0.187392;0.749568;0.187392;-0.187392;0.749568;0.187392;-0.374784;0.749568;0.187392;-0.187392;0.749568;0.187392;-0.374784;0.749568;0.187392;-0.374784;0.749568;0.0;-0.374784;0.749568;0.0;-0.374784;0.93696;0.0;-0.187392;0.93696;0.0;-0.187392;0.93696;0.0;-0.374784;0.93696;0.0;-0.374784;0.93696;0.0;-0.374784;0.93696;0.0;-0.374784;1.124352;0.0;-0.374784;1.311744;0.0;-0.374784;1.124352;0.0;-0.374784;0.93696;0.0;-0.562176;0.93696;0.0;-0.562176;1.124352;0.0;-0.374784;1.124352;0.0;-0.562176;0.93696;0.0;-0.562176;0.93696;0.0;-0.374784;0.749568;0.0;-0.374784;0.749568;0.0;-0.374784;0.749568;0.0;-0.562176;0.749568;0.0;-0.562176;0.93696;0.0;-0.562176;0.93696;0.0;-0.562176;0.93696;-0.187392;-0.562176;0.93696;-0.187392;-0.562176;0.93696;-0.187392;-0.374784;0.93696;-0.187392;-0.374784;0.93696;-0.187392;-0.374784;0.93696;-0.187392;-0.374784;0.93696;-0.187392;-0.374784;0.93696;0.0;-0.374784;0.749568;0.0;-0.374784;0.749568;0.0;-0.374784;0.749568;0.0;-0.374784;0.749568;0.0;-0.374784;0.749568;0.0;-0.374784;0.749568;0.0;-0.374784;0.749568;0.0;-0.374784;0.749568;0.0;-0.374784;0.749568;0.0;-0.374784;0.749568;0.0;-0.374784;35.84;0.0;-17.92;35.84;17.92;-17.92;35.84;17.92;-17.92;35.84;0.0;0.0;35.84;0.0;0.0;17.92;0.0;0.0;17.92;0.0;0.0;17.92;0.0;0.0;0.0;0.0;0.0;0.0;0.0;0.0;0.0;0.0;0.0;0.0;-17.92;0.0;0.0;-17.92;0.0;0.0;0.0;0.0;-17.92;0.0;17.92;-17.92;0.0;17.92;0.0;0.0;17.92;-17.92;0.0;17.92;-17.92;0.0;17.92;0.0;0.0;0.0;0.44544;0.44544;0.14848;0.44544;0.44544;0.14848;0.44544;0.44544;0.14848;0.44544;0.44544;0.29696;0.29696;0.29696;0.29696;0.44544;0.29696;0.29696;0.29696;0.44544;0.29696;0.29696;0.29696;0.29696;0.29696;0.44544;0.29696;0.29696;0.29696;0.29696;0.44544;0.29696;0.29696;0.29696;0.29696;0.29696;0.29696;0.44544;0.29696;0.29696;0.44544;0.29696;0.29696;0.44544;0.29696;0.29696;0.44544;0.29696;0.29696;0.44544;0.29696;0.44544;0.44544;0.29696;0.44544;0.44544;0.29696;0.29696;0.44544;0.14848
1727895267000;9;3.2;0;255;255;false;92;32.9254617;32.9254621;32.9254629;32.9254637;32.9254637;32.925464500000004;32.925465300000006;32.925466300000004;32.925467100000006;32.9254681;-117.2350407;-117.2350405;-117.23504009999999;-117.23503949999998;-117.23503889999998;-117.23503849999997;-117.23503789999997;-117.23503729999996;-117.23503629999996;-117.23503629999996;0.739;0.656;0.711;0.85;0.628;0.544;0.683;0.489;0.433;0.406;0.93696;0.0;-0.374784;0.93696;-0.187392;-0.374784;0.93696;-0.187392;-0.374784;0.93696;-0.187392;-0.374784;0.93696;-0.187392;-0.374784;0.749568;-0.187392;-0.374784;0.749568;-0.187392;-0.374784;0.749568;-0.187392;-0.374784;0.749568;-0.187392;-0.374784;0.749568;-0.187392;-0.374784;0.749568;-0.187392;-0.374784;0.93696;-0.187392;-0.374784;0.93696;0.0;-0.374784;0.93696;0.0;-0.374784;0.93696;0.0;-0.374784;0.93696;0.0;-0.374784;0.93696;0.0;-0.374784;0.93696;0.0;-0.374784;0.93696;-0.187392;-0.374784;1.124352;-0.187392;-0.374784;1.124352;0.0;-0.374784;0.93696;0.0;-0.374784;1.124352;0.0;-0.374784;1.124352;0.0;-0.374784;1.124352;0.0;-0.374784;0.93696;0.0;-0.374784;0.93696;0.0;-0.374784;0.93696;0.0;-0.374784;0.749568;0.0;-0.374784;0.749568;0.0;-0.374784;0.749568;0.0;-0.374784;0.749568;0.0;-0.374784;0.749568;0.0;-0.374784;0.749568;0.0;-0.374784;0.93696;0.0;-0.374784;0.93696;0.187392;-0.374784;0.93696;0.187392;-0.374784;0.93696;0.0;-0.374784;0.93696;0.0;-0.374784;0.93696;0.187392;-0.374784;0.93696;0.187392;-0.374784;0.93696;0.187392;-0.374784;0.93696;0.187392;-0.374784;0.93696;0.187392;-0.374784;0.93696;0.187392;-0.374784;0.749568;0.187392;-0.374784;0.749568;0.0;-0.374784;0.749568;0.0;-0.374784;0.749568;0.0;-0.374784;0.749568;0.0;-0.374784;0.749568;0.0;-0.374784;0.749568;0.187392;-0.374784;0.749568;0.187392;-0.374784;0.749568;0.187392;-0.374784;0.93696;0.187392;-0.374784;0.93696;0.187392;-0.374784;0.93696;0.187392;-0.374784;0.93696;0.187392;-0.374784;0.93696;0.187392;-0.374784;0.93696;0.187392;-0.374784;0.93696;0.0;-0.374784;0.93696;0.0;-0.374784;0.93696;0.187392;-0.374784;0.93696;0.187392;-0.374784;0.93696;0.187392;-0.374784;0.93696;0.187392;-0.374784;0.93696;0.0;-0.374784;0.93696;0.0;-0.374784;0.93696;0.0;-0.374784;0.93696;0.0;-0.374784;0.93696;0.0;-0.374784;0.93696;0.0;-0.374784;0.93696;0.0;-0.374784;0.93696;0.0;-0.374784;0.93696;0.0;-0.374784;0.93696;0.0;-0.374784;0.93696;0.0;-0.374784;0.93696;0.0;-0.374784;0.93696;0.0;-0.374784;0.93696;0.0;-0.374784;0.0;0.0;0.0;0.0;0.0;0.0;17.92;0.0;0.0;17.92;-17.92;0.0;17.92;-17.92;0.0;17.92;-17.92;0.0;17.92;0.0;0.0;17.92;0.0;0.0;35.84;0.0;0.0;35.84;0.0;-17.92;17.92;0.0;0.0;17.92;0.0;0.0;17.92;0.0;0.0;17.92;0.0;0.0;0.0;0.0;0.0;0.0;0.0;0.0;-17.92;0.0;0.0;0.0;0.0;0.0;-17.92;0.0;0.0;-17.92;0.0;0.0;0.29696;0.44544;0.29696;0.29696;0.44544;0.29696;0.44544;0.44544;0.29696;0.44544;0.44544;0.29696;0.44544;0.44544;0.14848;0.44544;0.29696;0.29696;0.44544;0.44544;0.29696;0.44544;0.29696;0.29696;0.44544;0.29696;0.29696;0.44544;0.29696;0.29696;0.29696;0.29696;0.29696;0.44544;0.29696;0.29696;0.44544;0.29696;0.44544;0.29696;0.29696;0.44544;0.44544;0.29696;0.29696;0.29696;0.29696;0.44544;0.29696;0.29696;0.44544;0.29696;0.29696;0.29696;0.29696;0.29696;0.44544;0.44544;0.29696;0.29696
1727895268000;9;3.2;0;255;255;false;92;32.9254693;32.9254703;32.9254715;32.9254725;32.9254727;32.9254729;32.925473100000005;32.92547330000001;32.92547350000001;32.92547350000001;-117.2350364;-117.2350364;-117.2350364;-117.2350364;-117.2350362;-117.2350362;-117.235036;-117.23503539999999;-117.23503459999999;-117.2350336;0.442;0.497;0.581;0.497;0.303;0.275;0.331;0.442;0.525;0.664;0.93696;0.0;-0.374784;0.93696;0.0;-0.374784;0.93696;0.0;-0.374784;0.93696;0.0;-0.374784;0.93696;0.0;-0.374784;0.93696;0.0;-0.374784;0.93696;0.0;-0.374784;0.93696;0.0;-0.374784;0.93696;0.0;-0.374784;0.93696;0.0;-0.374784;0.93696;0.0;-0.374784;0.93696;0.0;-0.374784;0.93696;0.0;-0.374784;0.93696;0.0;-0.374784;0.93696;0.0;-0.374784;0.93696;0.0;-0.374784;0.93696;0.0;-0.374784;0.749568;0.0;-0.374784;0.749568;0.0;-0.374784;0.749568;0.0;-0.374784;0.749568;0.0;-0.374784;0.749568;-0.187392;-0.374784;0.749568;-0.187392;-0.374784;0.93696;-0.187392;-0.374784;0.93696;-0.187392;-0.374784;0.93696;-0.187392;-0.374784;0.93696;-0.187392;-0.374784;0.93696;-0.187392;-0.374784;0.93696;-0.187392;-0.374784;0.93696;-0.187392;-0.374784;0.93696;-0.187392;-0.374784;0.93696;-0.187392;-0.374784;0.93696;-0.187392;-0.374784;0.93696;-0.187392;-0.374784;0.93696;-0.187392;-0.374784;0.749568;-0.187392;-0.374784;0.93696;-0.187392;-0.374784;0.93696;-0.187392;-0.374784;0.93696;-0.187392;-0.374784;0.93696;-0.187392;-0.374784;0.93696;-0.187392;-0.374784;0.93696;-0.187392;-0.187392;0.93696;-0.187392;-0.374784;0.93696;-0.187392;-0.374784;0.93696;-0.187392;-0.374784;0.93696;-0.187392;-0.374784;0.93696;-0.187392;-0.187392;0.93696;-0.187392;-0.374784;0.93696;-0.187392;-0.374784;0.93696;-0.187392;-0.187392;0.93696;-0.187392;-0.187392;0.93696;-0.187392;-0.374784;0.93696;-0.187392;-0.187392;0.93696;-0.187392;-0.374784;0.93696;-0.187392;-0.374784;0.93696;-0.187392;-0.374784;0.93696;-0.187392;-0.374784;0.93696;-0.187392;-0.374784;0.93696;-0.187392;-0.374784;0.93696;0.0;-0.374784;0.93696;0.0;-0.374784;0.93696;0.0;-0.374784;0.93696;0.0;-0.374784;0.93696;0.0;-0.374784;0.93696;0.0;-0.374784;0.93696;0.0;-0.374784;0.93696;0.0;-0.374784;0.93696;0.0;-0.374784;0.93696;0.0;-0.374784;0.93696;0.0;-0.374784;0.93696;0.0;-0.374784;0.93696;0.0;-0.374784;0.93696;0.0;-0.374784;0.93696;0.0;-0.374784;0.93696;0.0;-0.374784;0.93696;0.0;-0.374784;0.749568;0.0;-0.374784;0.749568;0.0;-0.374784;0.749568;0.0;-0.374784;0.749568;0.0;-0.374784;-17.92;0.0;17.92;-17.92;0.0;17.92;-17.92;0.0;17.92;-17.92;0.0;17.92;0.0;0.0;17.92;-17.92;0.0;17.92;0.0;0.0;17.92;0.0;0.0;17.92;-17.92;-17.92;17.92;0.0;-17.92;0.0;0.0;-17.92;0.0;17.92;0.0;0.0;17.92;0.0;0.0;17.92;0.0;0.0;17.92;0.0;-17.92;17.92;-17.92;-17.92;17.92;0.0;0.0;17.92;0.0;0.0;17.92;0.0;0.0;17.92;17.92;0.0;0.29696;0.29696;0.44544;0.29696;0.29696;0.29696;0.29696;0.29696;0.29696;0.44544;0.29696;0.44544;0.44544;0.29696;0.29696;0.44544;0.29696;0.29696;0.44544;0.29696;0.29696;0.44544;0.29696;0.29696;0.44544;0.29696;0.29696;0.44544;0.29696;0.29696;0.44544;0.29696;0.29696;0.44544;0.29696;0.29696;0.44544;0.29696;0.29696;0.44544;0.29696;0.29696;0.44544;0.29696;0.29696;0.44544;0.29696;0.29696;0.44544;0.29696;0.29696;0.44544;0.29696;0.29696;0.44544;0.29696;0.29696;0.29696;0.29696;0.29696
1727895269000;9;3.2;0;255;255;false;92;32.9254733;32.9254733;32.9254739;32.9254743;32.9254749;32.925475299999995;32.9254761;32.9254767;32.9254781;32.9254789;-117.235033;-117.2350322;-117.2350318;-117.2350314;-117.2350312;-117.2350312;-117.23503079999999;-117.23503079999999;-117.23503079999999;-117.23503079999999;0.411;0.494;0.439;0.328;0.217;0.217;0.217;0.161;0.133;0.106;0.749568;0.0;-0.374784;0.749568;0.0;-0.374784;0.749568;0.0;-0.374784;0.749568;0.0;-0.374784;0.93696;0.0;-0.374784;0.749568;0.0;-0.374784;0.93696;0.0;-0.374784;0.93696;0.0;-0.374784;0.93696;0.0;-0.374784;0.93696;0.0;-0.374784;0.93696;0.0;-0.374784;0.93696;0.0;-0.374784;0.93696;0.0;-0.374784;0.93696;0.0;-0.374784;0.93696;0.0;-0.374784;0.93696;0.0;-0.374784;0.93696;0.0;-0.374784;0.93696;0.0;-0.374784;0.93696;0.0;-0.374784;0.93696;0.0;-0.374784;0.93696;0.0;-0.374784;0.93696;0.0;-0.374784;0.749568;0.0;-0.374784;0.749568;0.0;-0.374784;0.749568;0.0;-0.374784;0.749568;0.0;-0.374784;0.749568;0.0;-0.374784;0.93696;0.0;-0.374784;0.749568;0.0;-0.374784;0.749568;0.0;-0.374784;0.93696;0.0;-0.374784;0.93696;0.0;-0.374784;0.93696;0.0;-0.374784;0.93696;0.0;-0.374784;0.93696;0.0;-0.374784;0.93696;0.0;-0.374784;0.93696;0.0;-0.374784;0.93696;0.0;-0.374784;0.93696;0.0;-0.374784;0.93696;0.0;-0.374784;0.93696;0.0;-0.374784;0.93696;0.0;-0.374784;0.93696;0.0;-0.374784;0.93696;0.0;-0.374784;0.93696;0.0;-0.374784;0.93696;0.0;-0.374784;0.93696;0.0;-0.374784;0.93696;0.0;-0.374784;0.93696;0.0;-0.374784;0.749568;0.0;-0.374784;0.749568;0.0;-0.374784;0.749568;0.0;-0.374784;0.749568;0.0;-0.562176;0.749568;0.0;-0.562176;0.749568;0.0;-0.374784;0.749568;0.0;-0.562176;0.749568;0.0;-0.562176;0.749568;0.0;-0.562176;0.749568;0.0;-0.562176;0.749568;0.0;-0.562176;0.749568;0.0;-0.562176;0.749568;0.0;-0.562176;0.749568;0.0;-0.562176;0.749568;0.0;-0.562176;0.749568;0.0;-0.562176;0.749568;0.0;-0.562176;0.749568;0.0;-0.562176;0.749568;0.0;-0.562176;0.93696;0.0;-0.562176;0.749568;0.0;-0.562176;0.749568;0.0;-0.374784;0.749568;0.0;-0.374784;0.749568;0.0;-0.374784;0.749568;0.0;-0.374784;0.749568;0.0;-0.374784;0.93696;0.0;-0.374784;0.93696;0.0;-0.374784;0.93696;0.0;-0.374784;0.93696;0.0;-0.374784;0.749568;0.0;-0.374784;17.92;17.92;0.0;17.92;0.0;0.0;17.92;0.0;0.0;0.0;0.0;0.0;0.0;0.0;0.0;0.0;0.0;0.0;0.0;0.0;0.0;0.0;0.0;0.0;0.0;0.0;0.0;0.0;0.0;0.0;17.92;0.0;0.0;17.92;17.92;0.0;17.92;17.92;0.0;17.92;0.0;0.0;17.92;0.0;0.0;35.84;0.0;-17.92;35.84;0.0;-17.92;35.84;-17.92;-17.92;35.84;-17.92;-17.92;35.84;-17.92;-17.92;0.29696;0.29696;0.29696;0.44544;0.29696;0.29696;0.44544;0.29696;0.29696;0.29696;0.29696;0.44544;0.29696;0.29696;0.44544;0.29696;0.29696;0.44544;0.29696;0.29696;0.44544;0.29696;0.29696;0.44544;0.29696;0.29696;0.44544;0.29696;0.29696;0.44544;0.29696;0.29696;0.44544;0.29696;0.29696;0.44544;0.29696;0.29696;0.44544;0.29696;0.29696;0.44544;0.29696;0.29696;0.59392;0.29696;0.29696;0.59392;0.29696;0.29696;0.59392;0.29696;0.14848;0.59392;0.29696;0.14848;0.59392;0.29696;0.14848;0.59392
1727895270000;9;3.2;0;255;255;false;92;32.9254796;32.925479800000005;32.9254802;32.9254808;32.9254812;32.9254818;32.9254822;32.9254822;32.925483199999995;32.925483799999995;-117.2350311;-117.2350311;-117.2350311;-117.2350313;-117.2350315;-117.2350315;-117.2350313;-117.23503050000001;-117.2350299;-117.2350291;0.111;0.111;0.222;0.278;0.25;0.139;0.25;0.333;0.5;0.528;0.749568;0.0;-0.374784;0.749568;0.0;-0.374784;0.93696;0.0;-0.374784;0.749568;0.0;-0.374784;0.749568;0.0;-0.374784;0.749568;0.0;-0.374784;0.749568;0.0;-0.374784;0.749568;0.0;-0.374784;0.93696;0.0;-0.374784;0.93696;0.0;-0.374784;0.93696;0.0;-0.374784;0.93696;0.0;-0.374784;0.93696;0.0;-0.374784;0.93696;0.0;-0.374784;0.93696;0.0;-0.374784;0.93696;0.0;-0.374784;0.93696;0.0;-0.374784;0.749568;0.0;-0.374784;0.749568;-0.187392;-0.374784;0.749568;-0.187392;-0.374784;0.749568;-0.187392;-0.374784;0.749568;-0.187392;-0.374784;0.749568;-0.187392;-0.374784;0.93696;-0.187392;-0.374784;0.93696;-0.187392;-0.374784;0.93696;-0.187392;-0.374784;0.93696;-0.187392;-0.374784;0.93696;-0.187392;-0.374784;0.93696;-0.187392;-0.374784;1.124352;-0.187392;-0.374784;1.124352;0.0;-0.374784;1.124352;0.0;-0.374784;1.124352;0.0;-0.374784;1.124352;0.0;-0.374784;0.93696;0.0;-0.374784;0.93696;0.0;-0.374784;0.93696;0.0;-0.374784;0.93696;0.0;-0.374784;0.93696;0.0;-0.374784;0.93696;0.0;-0.374784;0.93696;0.0;-0.374784;0.749568;0.0;-0.374784;0.93696;0.0;-0.374784;0.93696;0.0;-0.374784;0.93696;0.0;-0.374784;0.749568;0.0;-0.374784;0.93696;-0.187392;-0.374784;0.93696;-0.187392;-0.374784;0.93696;-0.187392;-0.374784;0.93696;-0.187392;-0.374784;0.93696;-0.187392;-0.374784;0.93696;-0.187392;-0.374784;0.93696;0.0;-0.374784;0.93696;0.0;-0.374784;0.93696;0.0;-0.374784;0.93696;0.0;-0.374784;0.749568;0.0;-0.374784;0.749568;0.0;-0.374784;0.749568;-0.187392;-0.374784;0.93696;-0.187392;-0.374784;0.93696;0.0;-0.374784;0.93696;0.0;-0.374784;0.749568;0.0;-0.374784;0.749568;0.0;-0.374784;0.749568;0.0;-0.374784;0.749568;0.0;-0.374784;0.749568;-0.187392;-0.374784;0.749568;-0.187392;-0.374784;0.749568;-0.187392;-0.374784;0.93696;0.0;-0.374784;0.93696;-0.187392;-0.374784;0.749568;-0.187392;-0.374784;0.93696;-0.187392;-0.374784;0.93696;-0.187392;-0.374784;0.93696;-0.187392;-0.374784;1.124352;-0.187392;-0.374784;0.93696;0.0;-0.562176;0.93696;0.0;-0.562176;1.124352;0.0;-0.562176;0.93696;0.0;-0.562176;53.760000000000005;-17.92;-17.92;53.760000000000005;-17.92;-17.92;53.760000000000005;-17.92;-17.92;53.760000000000005;-17.92;-17.92;53.760000000000005;0.0;-17.92;71.68;0.0;-17.92;89.60000000000001;-17.92;-17.92;107.52000000000001;-17.92;-35.84;107.52000000000001;0.0;-35.84;107.52000000000001;0.0;-35.84;89.60000000000001;0.0;-53.760000000000005;89.60000000000001;0.0;-53.760000000000005;89.60000000000001;0.0;-53.760000000000005;89.60000000000001;0.0;-53.760000000000005;89.60000000000001;0.0;-53.760000000000005;89.60000000000001;0.0;-35.84;89.60000000000001;0.0;-35.84;89.60000000000001;-17.92;-17.92;89.60000000000001;-17.92;-17.92;89.60000000000001;-17.92;-17.92;0.29696;0.14848;0.59392;0.29696;0.14848;0.59392;0.29696;0.0;0.59392;0.29696;0.0;0.59392;0.29696;0.0;0.59392;0.29696;0.0;0.44544;0.29696;-0.14848;0.59392;0.29696;-0.14848;0.44544;0.29696;-0.14848;0.44544;0.29696;-0.29696;0.44544;0.44544;-0.29696;0.44544;0.44544;-0.29696;0.29696;0.44544;-0.29696;0.44544;0.44544;-0.29696;0.29696;0.44544;-0.29696;0.29696;0.44544;-0.29696;0.14848;0.44544;-0.44544;0.14848;0.44544;-0.44544;0.14848;0.44544;-0.44544;0.0;0.44544;-0.44544;0.0
1727895271000;9;3.2;0;255;255;false;92;32.9254862;32.9254868;32.9254872;32.9254884;32.9254896;32.925491199999996;32.925491799999996;32.9254926;32.925493599999996;32.92549399999999;-117.2350293;-117.23503009999999;-117.2350307;-117.2350313;-117.2350315;-117.2350323;-117.23503290000001;-117.2350337;-117.2350349;-117.2350363;0.569;0.736;0.708;0.681;0.458;0.625;0.653;0.764;0.875;1.125;0.93696;0.0;-0.562176;0.93696;0.0;-0.562176;0.749568;0.0;-0.374784;0.749568;0.0;-0.374784;0.562176;0.0;-0.562176;0.562176;0.0;-0.562176;0.749568;0.0;-0.562176;0.749568;0.0;-0.562176;0.93696;0.0;-0.562176;0.93696;0.187392;-0.562176;0.93696;0.187392;-0.562176;0.93696;0.187392;-0.562176;0.93696;0.187392;-0.562176;0.93696;0.187392;-0.562176;0.93696;0.0;-0.562176;0.93696;0.0;-0.562176;0.749568;0.0;-0.562176;0.749568;0.0;-0.562176;0.749568;0.0;-0.562176;0.749568;0.0;-0.374784;0.749568;0.0;-0.374784;0.749568;0.0;-0.374784;0.749568;0.187392;-0.374784;0.749568;0.187392;-0.374784;0.749568;0.0;-0.374784;0.749568;0.187392;-0.374784;0.749568;0.0;-0.374784;0.749568;0.187392;-0.562176;0.749568;0.187392;-0.374784;0.749568;0.187392;-0.562176;0.749568;0.187392;-0.562176;0.749568;0.187392;-0.562176;0.749568;0.187392;-0.374784;0.749568;0.187392;-0.562176;0.749568;0.187392;-0.374784;0.749568;0.187392;-0.374784;0.749568;0.187392;-0.374784;0.749568;0.187392;-0.374784;0.749568;0.187392;-0.374784;0.749568;0.187392;-0.374784;0.749568;0.0;-0.374784;0.749568;0.0;-0.374784;0.749568;0.0;-0.374784;0.93696;0.0;-0.374784;0.93696;0.0;-0.374784;0.749568;0.0;-0.374784;0.749568;0.0;-0.374784;0.749568;0.0;-0.374784;0.749568;0.0;-0.374784;0.749568;0.0;-0.374784;0.749568;0.0;-0.374784;0.749568;0.0;-0.374784;0.749568;0.0;-0.374784;0.749568;0.0;-0.374784;0.749568;0.0;-0.374784;0.93696;0.0;-0.374784;0.93696;0.0;-0.374784;0.93696;0.187392;-0.562176;0.93696;0.0;-0.562176;1.124352;0.0;-0.562176;1.124352;-0.187392;-0.562176;0.93696;-0.187392;-0.562176;0.749568;-0.187392;-0.749568;0.749568;-0.374784;-0.749568;0.562176;-0.374784;-0.749568;0.562176;-0.374784;-0.749568;0.562176;-0.374784;-0.749568;0.562176;-0.562176;-0.749568;0.374784;-0.562176;-0.749568;0.374784;-0.562176;-0.749568;0.187392;-0.374784;-0.93696;0.374784;-0.374784;-0.93696;0.374784;-0.374784;-0.93696;0.187392;-0.374784;-0.93696;0.187392;-0.374784;-0.749568;0.187392;-0.374784;-0.749568;0.187392;-0.374784;-0.749568;0.187392;-0.374784;-0.749568;0.187392;-0.374784;-0.749568;0.0;-0.374784;-0.749568;71.68;0.0;-17.92;71.68;0.0;-17.92;71.68;0.0;-17.92;71.68;0.0;-35.84;53.760000000000005;0.0;-17.92;35.84;0.0;-17.92;35.84;0.0;-17.92;17.92;0.0;-17.92;17.92;17.92;0.0;-17.92;17.92;0.0;-17.92;17.92;0.0;-17.92;35.84;17.92;-35.84;35.84;17.92;-35.84;35.84;35.84;-53.760000000000005;53.760000000000005;35.84;-35.84;71.68;35.84;-35.84;107.52000000000001;35.84;-17.92;107.52000000000001;17.92;-17.92;107.52000000000001;17.92;0.0;107.52000000000001;17.92;0.44544;-0.44544;0.0;0.44544;-0.44544;0.0;0.59392;-0.44544;-0.14848;0.59392;-0.59392;-0.29696;0.59392;-0.44544;-0.29696;0.59392;-0.59392;-0.44544;0.59392;-0.44544;-0.29696;0.59392;-0.44544;-0.44544;0.59392;-0.44544;-0.44544;0.59392;-0.44544;-0.29696;0.59392;-0.44544;-0.29696;0.59392;-0.44544;-0.29696;0.59392;-0.44544;-0.29696;0.59392;-0.44544;-0.14848;0.44544;-0.44544;0.0;0.44544;-0.44544;0.14848;0.29696;-0.44544;0.29696;0.29696;-0.44544;0.44544;0.14848;-0.44544;0.59392;0.14848;-0.44544;0.7424
1727895272000;9;3.2;0;255;255;false;92;32.9254958;32.9254972;32.925498600000005;32.925501000000004;32.925501800000006;32.925502200000004;32.925502400000006;32.92550260000001;32.92550280000001;32.92550280000001;-117.2350378;-117.23503840000001;-117.23503880000001;-117.23503940000002;-117.23503960000002;-117.23503940000002;-117.23503920000002;-117.23503900000001;-117.23503880000001;-117.23503860000001;1.033;0.839;0.45;0.394;0.422;0.367;0.228;0.256;0.283;0.2;0.0;-0.374784;-0.749568;0.0;-0.374784;-0.749568;0.0;-0.374784;-0.749568;-0.187392;-0.374784;-0.93696;0.0;-0.374784;-0.93696;0.0;-0.374784;-0.93696;-0.187392;-0.374784;-0.93696;-0.187392;-0.374784;-0.93696;-0.187392;-0.374784;-0.93696;-0.187392;-0.374784;-0.93696;-0.187392;-0.187392;-0.93696;-0.187392;-0.187392;-0.93696;-0.187392;-0.187392;-0.93696;-0.187392;-0.187392;-0.93696;0.0;-0.187392;-0.93696;0.0;-0.187392;-1.124352;0.0;-0.187392;-1.124352;0.0;0.0;-1.124352;0.0;0.0;-1.124352;0.0;0.0;-1.124352;-0.187392;0.187392;-1.124352;-0.187392;0.187392;-1.124352;-0.187392;0.0;-1.124352;-0.187392;0.0;-1.124352;-0.187392;0.0;-1.124352;-0.187392;0.0;-1.124352;-0.187392;0.0;-1.124352;-0.187392;0.0;-1.124352;-0.187392;0.0;-1.124352;-0.187392;0.0;-1.124352;-0.187392;0.0;-1.124352;-0.187392;0.0;-1.124352;-0.187392;0.0;-1.124352;-0.187392;0.0;-1.124352;-0.187392;0.187392;-1.124352;-0.187392;0.0;-1.124352;-0.374784;0.0;-1.124352;-0.374784;0.0;-1.124352;-0.374784;0.0;-1.124352;-0.374784;0.0;-1.124352;-0.374784;0.0;-1.124352;-0.374784;0.0;-1.124352;-0.374784;0.0;-1.124352;-0.374784;0.0;-1.124352;-0.374784;0.0;-1.124352;-0.374784;0.0;-1.124352;-0.374784;0.0;-1.124352;-0.374784;-0.187392;-1.124352;-0.374784;-0.187392;-1.124352;-0.374784;-0.187392;-1.124352;-0.374784;-0.187392;-1.124352;-0.374784;-0.187392;-1.124352;-0.374784;-0.187392;-0.93696;-0.374784;-0.187392;-0.93696;-0.374784;-0.187392;-0.93696;-0.374784;-0.187392;-0.93696;-0.374784;-0.187392;-0.93696;-0.562176;-0.187392;-0.93696;-0.562176;-0.187392;-0.93696;-0.562176;-0.187392;-0.93696;-0.562176;-0.187392;-0.93696;-0.562176;-0.187392;-0.93696;-0.374784;0.0;-0.93696;-0.374784;0.0;-0.93696;-0.374784;0.0;-0.93696;-0.374784;0.0;-0.93696;-0.374784;0.0;-0.93696;-0.374784;0.0;-0.93696;-0.374784;0.0;-0.93696;-0.374784;0.187392;-0.93696;-0.374784;0.187392;-0.93696;-0.187392;0.187392;-0.93696;-0.374784;0.187392;-0.93696;-0.374784;0.187392;-0.749568;-0.374784;0.0;-0.749568;-0.374784;0.0;-0.749568;-0.187392;0.0;-0.749568;-0.187392;0.0;-0.749568;-0.374784;0.0;-0.749568;-0.374784;0.0;-0.749568;0.0;107.52000000000001;17.92;17.92;89.60000000000001;0.0;17.92;89.60000000000001;0.0;17.92;71.68;-17.92;17.92;53.760000000000005;-17.92;0.0;71.68;0.0;0.0;71.68;17.92;0.0;71.68;17.92;0.0;53.760000000000005;17.92;0.0;53.760000000000005;17.92;-17.92;35.84;17.92;-17.92;35.84;17.92;-17.92;17.92;35.84;0.0;17.92;17.92;0.0;17.92;17.92;0.0;0.0;17.92;0.0;0.0;17.92;17.92;0.0;0.0;0.0;17.92;0.0;-17.92;17.92;0.0;0.0;-0.44544;0.7424;0.0;-0.44544;0.89088;-0.14848;-0.44544;0.89088;-0.14848;-0.44544;0.89088;-0.29696;-0.44544;0.89088;-0.29696;-0.44544;0.89088;-0.44544;-0.44544;1.03936;-0.44544;-0.44544;1.03936;-0.44544;-0.44544;0.89088;-0.59392;-0.44544;1.03936;-0.59392;-0.44544;1.03936;-0.59392;-0.44544;1.03936;-0.7424;-0.44544;1.03936;-0.7424;-0.44544;1.03936;-0.7424;-0.44544;1.03936;-0.7424;-0.44544;1.03936;-0.7424;-0.44544;1.03936;-0.89088;-0.44544;1.03936;-0.7424;-0.44544;1.03936;-0.89088;-0.44544;1.03936
1727895273000;9;3.2;0;255;255;false;92;32.9255024;32.925502;32.9255012;32.9255014;32.9255014;32.925501000000004;32.9255014;32.9255014;32.9255014;32.9255012;-117.2350382;-117.2350382;-117.23503840000001;-117.23503880000001;-117.23503900000001;-117.23503940000002;-117.23503960000002;-117.23503980000002;-117.23503980000002;-117.23503980000002;0.033;0.089;0.339;0.256;0.2;0.394;0.144;0.144;0.2;0.172;-0.374784;0.0;-0.749568;-0.374784;0.0;-0.749568;-0.374784;0.0;-0.749568;-0.374784;0.0;-0.749568;-0.374784;0.0;-0.93696;-0.374784;-0.187392;-0.93696;-0.374784;-0.187392;-0.93696;-0.374784;-0.187392;-0.93696;-0.374784;-0.187392;-0.93696;-0.374784;-0.187392;-0.93696;-0.374784;-0.187392;-0.93696;-0.374784;-0.187392;-0.93696;-0.562176;-0.187392;-0.93696;-0.562176;-0.187392;-0.749568;-0.749568;-0.187392;-0.749568;-0.749568;-0.187392;-0.749568;-0.562176;-0.187392;-0.93696;-0.562176;-0.187392;-0.93696;-0.562176;-0.187392;-0.93696;-0.562176;-0.187392;-0.93696;-0.562176;0.0;-0.93696;-0.562176;0.0;-0.93696;-0.562176;0.0;-0.93696;-0.749568;-0.187392;-0.93696;-0.749568;-0.187392;-0.93696;-0.749568;0.0;-0.93696;-0.749568;0.0;-0.93696;-0.749568;-0.187392;-0.93696;-0.749568;-0.187392;-0.93696;-0.749568;-0.187392;-0.93696;-0.749568;-0.374784;-0.93696;-0.749568;-0.374784;-0.93696;-0.749568;-0.374784;-0.93696;-0.749568;-0.374784;-0.749568;-0.749568;-0.562176;-0.749568;-0.749568;-0.562176;-0.749568;-0.749568;-0.562176;-0.749568;-0.749568;-0.562176;-0.749568;-0.749568;-0.562176;-0.749568;-0.749568;-0.562176;-0.749568;-0.749568;-0.562176;-0.749568;-0.749568;-0.562176;-0.749568;-0.749568;-0.562176;-0.749568;-0.749568;-0.562176;-0.749568;-0.749568;-0.562176;-0.749568;-0.749568;-0.374784;-0.749568;-0.562176;-0.374784;-0.749568;-0.562176;-0.187392;-0.749568;-0.562176;0.0;-0.749568;-0.562176;0.0;-0.749568;-0.562176;0.0;-0.749568;-0.562176;0.0;-0.749568;-0.749568;0.187392;-0.749568;-0.749568;0.187392;-0.749568;-0.749568;0.187392;-0.749568;-0.749568;0.187392;-0.749568;-0.749568;0.187392;-0.749568;-0.562176;0.187392;-0.749568;-0.562176;0.187392;-0.749568;-0.562176;0.187392;-0.749568;-0.562176;0.187392;-0.749568;-0.562176;0.187392;-0.749568;-0.562176;0.187392;-0.749568;-0.562176;0.187392;-0.749568;-0.562176;0.187392;-0.749568;-0.562176;0.0;-0.749568;-0.562176;0.0;-0.749568;-0.562176;0.0;-0.749568;-0.749568;0.0;-0.749568;-0.749568;-0.187392;-0.749568;-0.749568;-0.187392;-0.749568;-0.749568;-0.187392;-0.749568;-0.749568;-0.187392;-0.749568;-0.749568;-0.187392;-0.749568;-0.749568;0.0;-0.749568;-0.749568;0.0;-0.749568;-0.749568;-0.187392;-0.749568;-0.749568;-0.187392;-0.749568;-0.749568;-0.187392;-0.749568;-0.749568;-0.374784;-0.749568;-17.92;17.92;0.0;-17.92;17.92;17.92;0.0;35.84;0.0;0.0;53.760000000000005;0.0;0.0;35.84;0.0;-17.92;35.84;0.0;-35.84;35.84;0.0;-53.760000000000005;35.84;17.92;-53.760000000000005;17.92;35.84;-35.84;0.0;17.92;17.92;0.0;-17.92;71.68;-17.92;-53.760000000000005;89.60000000000001;-17.92;-53.760000000000005;71.68;0.0;-53.760000000000005;17.92;0.0;-35.84;-17.92;0.0;0.0;-35.84;0.0;0.0;-35.84;17.92;17.92;-35.84;17.92;17.92;-53.760000000000005;17.92;17.92;-0.89088;-0.44544;1.03936;-0.89088;-0.44544;1.03936;-0.89088;-0.44544;1.03936;-0.89088;-0.44544;1.03936;-0.89088;-0.44544;1.03936;-1.03936;-0.44544;1.03936;-1.03936;-0.29696;0.89088;-1.03936;-0.29696;0.89088;-1.03936;-0.29696;1.03936;-1.03936;-0.29696;1.03936;-1.18784;-0.29696;0.89088;-1.03936;-0.29696;0.89088;-1.03936;-0.29696;0.89088;-1.03936;-0.44544;0.89088;-1.03936;-0.44544;0.89088;-1.03936;-0.44544;0.89088;-1.03936;-0.59392;0.89088;-1.03936;-0.44544;0.89088;-1.03936;-0.44544;0.89088;-1.03936;-0.44544;1.03936
1727895274000;9;3.2;0;255;255;false;92;32.925501;32.925501;32.925501;32.9255016;32.9255018;32.9255018;32.9255018;32.9255024;32.9255032;32.9255038;-117.2350397;-117.2350397;-117.2350397;-117.2350397;-117.2350397;-117.2350397;-117.2350399;-117.2350395;-117.2350391;-117.23503869999999;0.156;0.128;0.072;0.183;0.211;0.156;0.239;0.1;0.239;0.294;-0.749568;-0.374784;-0.749568;-0.749568;-0.374784;-0.749568;-0.749568;-0.374784;-0.749568;-0.749568;-0.374784;-0.749568;-0.749568;-0.374784;-0.749568;-0.749568;-0.374784;-0.749568;-0.749568;-0.374784;-0.749568;-0.749568;-0.374784;-0.749568;-0.749568;-0.374784;-0.749568;-0.749568;-0.374784;-0.749568;-0.749568;-0.374784;-0.749568;-0.749568;-0.374784;-0.749568;-0.749568;-0.374784;-0.749568;-0.749568;-0.187392;-0.562176;-0.562176;-0.187392;-0.562176;-0.562176;-0.187392;-0.562176;-0.749568;-0.187392;-0.749568;-0.749568;0.0;-0.562176;-0.749568;0.0;-0.749568;-0.749568;0.187392;-0.749568;-0.749568;0.187392;-0.749568;-0.749568;0.187392;-0.749568;-0.749568;0.187392;-0.749568;-0.749568;0.187392;-0.749568;-0.749568;0.374784;-0.93696;-0.749568;0.374784;-0.749568;-0.749568;0.562176;-0.93696;-0.749568;0.562176;-0.93696;-0.749568;0.562176;-0.93696;-0.749568;0.562176;-0.93696;-0.749568;0.562176;-0.93696;-0.749568;0.374784;-0.93696;-0.749568;0.374784;-0.749568;-0.749568;0.374784;-0.749568;-0.562176;0.374784;-0.749568;-0.562176;0.374784;-0.749568;-0.749568;0.187392;-0.749568;-0.749568;0.187392;-0.749568;-0.749568;0.187392;-0.749568;-0.749568;0.187392;-0.749568;-0.749568;0.0;-0.749568;-0.749568;0.0;-0.749568;-0.562176;-0.187392;-0.749568;-0.562176;-0.187392;-0.749568;-0.562176;-0.374784;-0.749568;-0.562176;-0.374784;-0.749568;-0.749568;-0.374784;-0.749568;-0.749568;-0.374784;-0.749568;-0.749568;-0.374784;-0.749568;-0.749568;-0.562176;-0.749568;-0.749568;-0.562176;-0.749568;-0.749568;-0.562176;-0.749568;-0.749568;-0.562176;-0.749568;-0.749568;-0.562176;-0.749568;-0.749568;-0.562176;-0.749568;-0.749568;-0.562176;-0.749568;-0.749568;-0.562176;-0.749568;-0.749568;-0.374784;-0.749568;-0.749568;-0.374784;-0.749568;-0.749568;-0.374784;-0.749568;-0.749568;-0.187392;-0.749568;-0.749568;-0.374784;-0.749568;-0.749568;-0.187392;-0.749568;-0.749568;-0.187392;-0.749568;-0.562176;-0.187392;-0.749568;-0.562176;0.0;-0.749568;-0.562176;0.0;-0.749568;-0.562176;0.0;-0.749568;-0.562176;0.187392;-0.749568;-0.562176;0.187392;-0.749568;-0.562176;0.187392;-0.749568;-0.562176;0.187392;-0.93696;-0.562176;0.187392;-0.93696;-0.562176;0.187392;-0.749568;-0.562176;0.187392;-0.749568;-0.562176;0.0;-0.749568;-0.562176;0.0;-0.749568;-0.562176;0.0;-0.749568;-0.562176;-0.187392;-0.749568;-0.562176;-0.187392;-0.749568;-17.92;0.0;17.92;0.0;0.0;0.0;35.84;0.0;-17.92;53.760000000000005;-17.92;-35.84;89.60000000000001;-17.92;-53.760000000000005;89.60000000000001;-17.92;-53.760000000000005;53.760000000000005;-17.92;-35.84;17.92;-17.92;-17.92;-53.760000000000005;-17.92;17.92;-89.60000000000001;0.0;53.760000000000005;-107.52000000000001;0.0;71.68;-107.52000000000001;0.0;89.60000000000001;-53.760000000000005;0.0;71.68;-17.92;0.0;35.84;35.84;-17.92;17.92;53.760000000000005;-17.92;17.92;71.68;-17.92;0.0;35.84;-17.92;0.0;-17.92;0.0;35.84;-53.760000000000005;0.0;53.760000000000005;-1.03936;-0.44544;0.89088;-1.03936;-0.44544;0.89088;-1.03936;-0.44544;0.89088;-1.03936;-0.44544;0.89088;-1.03936;-0.59392;0.89088;-1.03936;-0.59392;0.7424;-0.89088;-0.59392;0.7424;-0.89088;-0.7424;0.59392;-0.89088;-0.7424;0.59392;-0.89088;-0.59392;0.7424;-1.03936;-0.59392;0.7424;-1.03936;-0.44544;0.89088;-1.03936;-0.29696;0.89088;-1.03936;-0.29696;1.03936;-1.03936;-0.29696;1.03936;-1.03936;-0.29696;1.03936;-1.03936;-0.29696;1.03936;-1.03936;-0.44544;0.89088;-1.03936;-0.44544;0.89088;-1.03936;-0.29696;1.03936
1727895275000;9;3.2;0;255;255;false;92;32.9255039;32.925504100000005;32.92550430000001;32.92550430000001;32.92550450000001;32.92550430000001;32.92550390000001;32.92550350000001;32.92550290000001;32.92550230000001;-117.2350385;-117.2350385;-117.2350385;-117.2350383;-117.2350381;-117.2350383;-117.2350387;-117.23503930000001;-117.23503950000001;-117.23503950000001;0.147;0.119;0.064;0.064;0.064;0.231;0.342;0.564;0.536;0.536;-0.562176;-0.187392;-0.749568;-0.562176;-0.187392;-0.749568;-0.562176;-0.187392;-0.749568;-0.562176;-0.374784;-0.749568;-0.562176;-0.374784;-0.749568;-0.562176;-0.374784;-0.749568;-0.562176;-0.374784;-0.93696;-0.749568;-0.374784;-0.93696;-0.749568;-0.374784;-0.93696;-0.749568;-0.374784;-0.93696;-0.749568;-0.374784;-0.93696;-0.749568;-0.374784;-0.93696;-0.749568;-0.374784;-0.93696;-0.749568;-0.562176;-0.93696;-0.749568;-0.562176;-0.93696;-0.749568;-0.562176;-0.93696;-0.562176;-0.562176;-0.93696;-0.562176;-0.374784;-0.93696;-0.562176;-0.374784;-0.93696;-0.562176;-0.374784;-0.749568;-0.749568;-0.374784;-0.749568;-0.562176;-0.187392;-0.749568;-0.562176;-0.187392;-0.749568;-0.562176;-0.187392;-0.749568;-0.562176;-0.187392;-0.749568;-0.562176;-0.187392;-0.749568;-0.562176;-0.187392;-0.749568;-0.562176;-0.187392;-0.749568;-0.374784;-0.187392;-0.749568;-0.374784;0.0;-0.749568;-0.374784;0.0;-0.749568;-0.374784;0.0;-0.749568;-0.374784;0.0;-0.749568;-0.374784;0.0;-0.749568;-0.562176;0.0;-0.749568;-0.562176;-0.187392;-0.749568;-0.562176;0.0;-0.749568;-0.562176;0.0;-0.749568;-0.374784;0.0;-0.749568;-0.374784;0.0;-0.749568;-0.374784;0.0;-0.749568;-0.374784;0.0;-0.749568;-0.562176;0.0;-0.749568;-0.562176;0.0;-0.749568;-0.562176;0.0;-0.749568;-0.562176;0.0;-0.749568;-0.562176;0.0;-0.749568;-0.562176;0.0;-0.749568;-0.562176;0.0;-0.749568;-0.562176;0.0;-0.93696;-0.562176;0.0;-0.749568;-0.749568;0.0;-0.749568;-0.749568;0.0;-0.93696;-0.749568;0.0;-0.93696;-0.749568;0.0;-0.749568;-0.749568;0.0;-0.749568;-0.749568;-0.187392;-0.749568;-0.749568;-0.187392;-0.749568;-0.749568;-0.187392;-0.749568;-0.749568;-0.187392;-0.749568;-0.749568;-0.187392;-0.749568;-0.749568;-0.374784;-0.749568;-0.749568;-0.374784;-0.749568;-0.749568;-0.374784;-0.749568;-0.749568;-0.374784;-0.749568;-0.749568;-0.374784;-0.749568;-0.749568;-0.374784;-0.749568;-0.749568;-0.374784;-0.749568;-0.749568;-0.374784;-0.749568;-0.749568;-0.374784;-0.749568;-0.749568;-0.374784;-0.749568;-0.749568;-0.374784;-0.749568;-0.749568;-0.374784;-0.749568;-0.749568;-0.374784;-0.749568;-0.749568;-0.187392;-0.749568;-0.749568;-0.187392;-0.749568;-0.749568;-0.187392;-0.749568;-0.749568;-0.187392;-0.749568;-0.749568;0.0;-0.749568;-0.749568;0.0;-0.749568;-71.68;0.0;53.760000000000005;-71.68;0.0;53.760000000000005;-53.760000000000005;0.0;35.84;-17.92;0.0;17.92;17.92;-17.92;0.0;35.84;-17.92;-17.92;35.84;-35.84;-35.84;35.84;-35.84;-53.760000000000005;17.92;-17.92;-53.760000000000005;17.92;-17.92;-53.760000000000005;17.92;0.0;-71.68;0.0;17.92;-53.760000000000005;-17.92;17.92;-53.760000000000005;-35.84;17.92;-35.84;-53.760000000000005;17.92;-17.92;-53.760000000000005;17.92;-17.92;-17.92;0.0;-17.92;0.0;0.0;-35.84;53.760000000000005;0.0;-35.84;71.68;-17.92;-53.760000000000005;-1.03936;-0.29696;1.03936;-1.03936;-0.14848;1.03936;-1.18784;-0.14848;1.03936;-1.03936;-0.14848;1.03936;-1.18784;-0.14848;1.03936;-1.18784;-0.14848;1.03936;-1.03936;-0.14848;1.03936;-1.03936;-0.29696;1.03936;-1.03936;-0.29696;1.03936;-0.89088;-0.29696;1.03936;-0.89088;-0.44544;1.03936;-0.89088;-0.44544;1.03936;-0.89088;-0.44544;1.03936;-0.89088;-0.44544;1.03936;-0.89088;-0.44544;1.03936;-0.89088;-0.44544;1.03936;-0.89088;-0.29696;1.03936;-0.89088;-0.29696;1.03936;-0.89088;-0.29696;1.03936;-0.89088;-0.44544;1.03936
1727895276000;9;3.2;0;255;255;false;92;32.9255022;32.9255024;32.9255022;32.925501999999994;32.92550179999999;32.92550179999999;32.92550219999999;32.92550219999999;32.92550199999999;32.92550199999999;-117.2350396;-117.23504;-117.23504;-117.2350398;-117.2350398;-117.2350398;-117.23504;-117.23504;-117.2350396;-117.2350396;0.311;0.2;0.172;0.172;0.172;0.006;0.2;0.144;0.228;0.228;-0.749568;0.0;-0.749568;-0.749568;0.0;-0.749568;-0.749568;0.187392;-0.749568;-0.749568;0.187392;-0.749568;-0.749568;0.187392;-0.749568;-0.749568;0.374784;-0.749568;-0.749568;0.374784;-0.749568;-0.749568;0.187392;-0.749568;-0.749568;0.187392;-0.749568;-0.749568;0.374784;-0.749568;-0.749568;0.374784;-0.749568;-0.749568;0.374784;-0.749568;-0.749568;0.374784;-0.749568;-0.749568;0.374784;-0.749568;-0.749568;0.187392;-0.749568;-0.749568;0.187392;-0.749568;-0.562176;0.187392;-0.749568;-0.749568;0.187392;-0.749568;-0.749568;0.187392;-0.749568;-0.749568;0.187392;-0.749568;-0.562176;0.187392;-0.749568;-0.562176;0.187392;-0.749568;-0.562176;0.0;-0.749568;-0.562176;0.0;-0.749568;-0.749568;0.0;-0.749568;-0.749568;0.0;-0.749568;-0.749568;-0.187392;-0.749568;-0.749568;-0.187392;-0.749568;-0.749568;-0.374784;-0.749568;-0.749568;-0.374784;-0.749568;-0.749568;-0.562176;-0.749568;-0.93696;-0.562176;-0.749568;-0.93696;-0.374784;-0.749568;-0.93696;-0.374784;-0.749568;-0.93696;-0.374784;-0.749568;-0.93696;-0.374784;-0.749568;-0.749568;-0.374784;-0.749568;-0.749568;-0.374784;-0.749568;-0.749568;-0.187392;-0.749568;-0.749568;-0.187392;-0.749568;-0.749568;0.0;-0.749568;-0.749568;0.0;-0.749568;-0.749568;0.0;-0.749568;-0.749568;0.0;-0.749568;-0.749568;0.187392;-0.749568;-0.749568;0.187392;-0.749568;-0.749568;0.187392;-0.749568;-0.749568;0.187392;-0.749568;-0.749568;0.187392;-0.749568;-0.749568;0.187392;-0.749568;-0.749568;0.187392;-0.749568;-0.749568;0.187392;-0.749568;-0.749568;0.187392;-0.749568;-0.749568;0.187392;-0.749568;-0.749568;0.187392;-0.749568;-0.749568;0.0;-0.749568;-0.749568;0.0;-0.749568;-0.749568;0.0;-0.749568;-0.749568;0.0;-0.749568;-0.749568;0.187392;-0.749568;-0.749568;0.187392;-0.749568;-0.749568;0.187392;-0.749568;-0.749568;0.0;-0.749568;-0.749568;0.0;-0.749568;-0.749568;-0.187392;-0.749568;-0.749568;-0.187392;-0.749568;-0.749568;-0.187392;-0.749568;-0.749568;-0.187392;-0.749568;-0.749568;-0.187392;-0.93696;-0.749568;-0.187392;-0.749568;-0.93696;-0.187392;-0.749568;-0.93696;0.0;-0.749568;-0.93696;-0.187392;-0.749568;-0.93696;-0.374784;-0.749568;-0.749568;-0.562176;-0.749568;-0.749568;-0.562176;-0.749568;-0.93696;-0.562176;-0.749568;-0.93696;-0.562176;-0.749568;-0.93696;-0.374784;-0.749568;-0.749568;-0.374784;-0.749568;71.68;0.0;-53.760000000000005;53.760000000000005;0.0;-35.84;17.92;0.0;-17.92;-17.92;0.0;0.0;-35.84;0.0;17.92;-89.60000000000001;0.0;35.84;-89.60000000000001;0.0;53.760000000000005;-71.68;0.0;53.760000000000005;0.0;17.92;35.84;35.84;0.0;0.0;71.68;0.0;-17.92;71.68;0.0;-17.92;35.84;0.0;0.0;17.92;0.0;17.92;0.0;0.0;35.84;-35.84;0.0;35.84;-35.84;0.0;53.760000000000005;-53.760000000000005;0.0;53.760000000000005;-17.92;0.0;53.760000000000005;35.84;0.0;35.84;-0.7424;-0.44544;1.03936;-0.7424;-0.59392;0.89088;-0.7424;-0.59392;0.7424;-0.7424;-0.59392;0.89088;-0.7424;-0.59392;0.89088;-0.7424;-0.59392;0.89088;-0.89088;-0.44544;1.03936;-0.89088;-0.44544;1.03936;-0.89088;-0.44544;1.03936;-0.89088;-0.44544;1.03936;-0.89088;-0.44544;1.03936;-0.89088;-0.44544;0.89088;-0.89088;-0.59392;0.89088;-0.89088;-0.59392;0.89088;-0.89088;-0.59392;0.89088;-0.89088;-0.59392;0.89088;-0.89088;-0.44544;0.89088;-0.89088;-0.44544;1.03936;-1.03936;-0.44544;1.03936;-1.03936;-0.44544;1.03936
1727895277000;9;3.2;0;255;255;false;92;32.9255018;32.925502;32.925502;32.925502;32.9255024;32.9255024;32.9255024;32.9255024;32.9255026;32.9255026;-117.2350394;-117.2350392;-117.2350388;-117.2350386;-117.2350386;-117.2350384;-117.2350384;-117.2350384;-117.23503819999999;-117.23503819999999;0.161;0.356;0.411;0.244;0.439;0.3;0.189;0.161;0.217;0.133;-0.749568;-0.187392;-0.749568;-0.749568;-0.187392;-0.749568;-0.749568;0.0;-0.749568;-0.749568;0.0;-0.749568;-0.749568;0.187392;-0.749568;-0.749568;0.0;-0.749568;-0.749568;0.0;-0.749568;-0.749568;0.0;-0.749568;-0.749568;0.0;-0.749568;-0.562176;0.0;-0.749568;-0.562176;0.0;-0.749568;-0.562176;0.0;-0.749568;-0.562176;-0.187392;-0.749568;-0.562176;-0.187392;-0.749568;-0.562176;-0.187392;-0.749568;-0.562176;-0.187392;-0.749568;-0.562176;-0.187392;-0.749568;-0.562176;-0.187392;-0.749568;-0.562176;-0.187392;-0.562176;-0.562176;-0.187392;-0.562176;-0.562176;-0.187392;-0.562176;-0.562176;0.0;-0.562176;-0.562176;0.0;-0.562176;-0.562176;0.0;-0.562176;-0.562176;0.187392;-0.749568;-0.749568;0.187392;-0.749568;-0.749568;0.187392;-0.749568;-0.749568;0.374784;-0.749568;-0.749568;0.374784;-0.749568;-0.749568;0.374784;-0.749568;-0.749568;0.374784;-0.749568;-0.749568;0.374784;-0.749568;-0.93696;0.187392;-0.93696;-0.93696;0.187392;-0.93696;-0.93696;0.187392;-0.93696;-0.93696;0.187392;-0.93696;-0.93696;0.187392;-0.93696;-0.93696;0.187392;-0.93696;-0.93696;0.187392;-0.93696;-0.749568;0.187392;-0.93696;-0.749568;0.187392;-0.93696;-0.749568;0.187392;-0.93696;-0.749568;0.187392;-0.749568;-0.749568;0.187392;-0.749568;-0.749568;0.187392;-0.749568;-0.749568;0.0;-0.749568;-0.749568;0.0;-0.749568;-0.749568;0.187392;-0.749568;-0.749568;0.187392;-0.93696;-0.749568;0.187392;-0.93696;-0.749568;0.187392;-0.93696;-0.749568;0.187392;-0.93696;-0.749568;0.187392;-0.749568;-0.749568;0.187392;-0.749568;-0.749568;0.187392;-0.749568;-0.749568;0.187392;-0.749568;-0.749568;0.0;-0.749568;-0.562176;0.0;-0.749568;-0.562176;0.0;-0.749568;-0.562176;0.0;-0.749568;-0.562176;0.0;-0.749568;-0.562176;0.0;-0.749568;-0.562176;0.0;-0.749568;-0.562176;-0.187392;-0.749568;-0.562176;-0.187392;-0.749568;-0.562176;-0.187392;-0.749568;-0.562176;-0.187392;-0.562176;-0.562176;-0.187392;-0.749568;-0.562176;-0.187392;-0.749568;-0.562176;-0.187392;-0.749568;-0.562176;-0.187392;-0.749568;-0.562176;-0.187392;-0.749568;-0.562176;-0.187392;-0.749568;-0.562176;-0.187392;-0.749568;-0.562176;-0.187392;-0.749568;-0.562176;-0.187392;-0.749568;-0.562176;-0.187392;-0.749568;-0.562176;-0.187392;-0.749568;-0.562176;-0.187392;-0.749568;-0.562176;-0.187392;-0.749568;53.760000000000005;-17.92;0.0;53.760000000000005;0.0;0.0;0.0;0.0;17.92;17.92;0.0;17.92;35.84;17.92;17.92;53.760000000000005;17.92;-17.92;71.68;17.92;-35.84;53.760000000000005;0.0;-17.92;17.92;0.0;0.0;0.0;-17.92;0.0;0.0;-17.92;17.92;-17.92;-17.92;17.92;-17.92;-17.92;17.92;-17.92;-35.84;17.92;-35.84;-35.84;35.84;-35.84;-17.92;35.84;-35.84;-17.92;35.84;-17.92;-17.92;35.84;-17.92;0.0;35.84;-17.92;0.0;35.84;-1.03936;-0.44544;1.03936;-1.03936;-0.44544;1.03936;-1.03936;-0.44544;1.03936;-1.03936;-0.44544;0.89088;-1.03936;-0.44544;0.89088;-1.03936;-0.44544;0.89088;-1.03936;-0.44544;0.7424;-1.03936;-0.59392;0.7424;-1.03936;-0.59392;0.7424;-1.03936;-0.59392;0.7424;-1.03936;-0.59392;0.7424;-1.03936;-0.59392;0.7424;-1.03936;-0.59392;0.7424;-1.03936;-0.59392;0.7424;-1.03936;-0.44544;0.7424;-1.03936;-0.44544;0.89088;-1.03936;-0.44544;0.89088;-1.03936;-0.44544;0.89088;-1.03936;-0.44544;0.89088;-1.03936;-0.29696;0.89088
1727895278000;9;3.2;0;255;255;false;92;32.9255032;32.925503400000004;32.925503600000006;32.925503600000006;32.925503600000006;32.925504000000004;32.925504000000004;32.9255038;32.9255036;32.9255036;-117.235038;-117.2350378;-117.2350378;-117.235038;-117.2350382;-117.2350382;-117.2350382;-117.23503860000001;-117.23503880000001;-117.23503880000001;0.183;0.294;0.267;0.156;0.1;0.128;0.072;0.156;0.239;0.044;-0.562176;-0.187392;-0.749568;-0.562176;-0.187392;-0.749568;-0.562176;-0.187392;-0.749568;-0.562176;-0.187392;-0.749568;-0.749568;-0.187392;-0.749568;-0.749568;-0.187392;-0.749568;-0.749568;-0.187392;-0.93696;-0.749568;-0.187392;-0.93696;-0.749568;-0.187392;-0.93696;-0.749568;-0.187392;-0.93696;-0.749568;-0.187392;-0.93696;-0.749568;-0.187392;-0.93696;-0.749568;-0.187392;-0.93696;-0.749568;-0.187392;-0.93696;-0.749568;-0.187392;-0.93696;-0.749568;-0.187392;-0.93696;-0.749568;-0.187392;-0.93696;-0.749568;-0.187392;-0.93696;-0.749568;-0.187392;-0.93696;-0.749568;-0.187392;-0.93696;-0.749568;-0.187392;-0.93696;-0.749568;-0.187392;-0.749568;-0.749568;-0.187392;-0.749568;-0.749568;-0.187392;-0.749568;-0.749568;-0.187392;-0.749568;-0.749568;-0.187392;-0.749568;-0.749568;-0.187392;-0.749568;-0.749568;0.0;-0.749568;-0.749568;0.0;-0.749568;-0.749568;0.0;-0.749568;-0.562176;0.0;-0.749568;-0.562176;0.0;-0.749568;-0.562176;0.0;-0.749568;-0.562176;0.0;-0.749568;-0.562176;0.0;-0.749568;-0.562176;0.0;-0.749568;-0.562176;0.0;-0.749568;-0.562176;0.0;-0.562176;-0.562176;0.187392;-0.749568;-0.562176;0.187392;-0.749568;-0.562176;0.187392;-0.749568;-0.562176;0.187392;-0.749568;-0.562176;0.0;-0.749568;-0.749568;0.0;-0.749568;-0.749568;0.0;-0.749568;-0.749568;0.0;-0.749568;-0.749568;0.0;-0.749568;-0.749568;0.0;-0.749568;-0.749568;-0.187392;-0.749568;-0.749568;-0.187392;-0.749568;-0.749568;-0.187392;-0.749568;-0.749568;-0.187392;-0.749568;-0.749568;-0.187392;-0.749568;-0.93696;-0.187392;-0.749568;-0.93696;-0.374784;-0.749568;-0.93696;-0.374784;-0.749568;-0.93696;-0.374784;-0.749568;-0.93696;-0.374784;-0.749568;-0.93696;-0.374784;-0.749568;-0.93696;-0.374784;-0.749568;-0.93696;-0.374784;-0.749568;-0.93696;-0.562176;-0.749568;-0.93696;-0.374784;-0.749568;-0.93696;-0.374784;-0.749568;-0.93696;-0.374784;-0.749568;-0.749568;-0.374784;-0.749568;-0.749568;-0.374784;-0.749568;-0.749568;-0.374784;-0.749568;-0.749568;-0.374784;-0.749568;-0.749568;-0.374784;-0.749568;-0.749568;-0.187392;-0.749568;-0.749568;-0.187392;-0.749568;-0.749568;-0.187392;-0.749568;-0.562176;-0.187392;-0.749568;-0.562176;0.0;-0.749568;-0.562176;0.0;-0.749568;-0.562176;0.0;-0.749568;-0.562176;0.0;-0.749568;-0.562176;0.0;-0.749568;-0.562176;0.0;-0.749568;0.0;17.92;35.84;0.0;17.92;35.84;0.0;17.92;35.84;0.0;17.92;17.92;17.92;0.0;17.92;17.92;0.0;0.0;17.92;0.0;0.0;17.92;0.0;-17.92;0.0;0.0;-17.92;-17.92;17.92;-17.92;-35.84;17.92;-17.92;-35.84;17.92;0.0;-71.68;17.92;0.0;-71.68;17.92;17.92;-53.760000000000005;0.0;0.0;-35.84;-17.92;0.0;0.0;-35.84;-17.92;35.84;-35.84;-17.92;71.68;-53.760000000000005;-35.84;53.760000000000005;-35.84;-17.92;-1.03936;-0.29696;0.89088;-1.03936;-0.29696;0.89088;-1.03936;-0.29696;0.89088;-1.18784;-0.29696;0.89088;-1.18784;-0.29696;1.03936;-1.18784;-0.29696;0.89088;-1.18784;-0.29696;0.89088;-1.18784;-0.29696;0.89088;-1.18784;-0.29696;0.89088;-1.18784;-0.44544;0.89088;-1.18784;-0.29696;0.89088;-1.18784;-0.29696;0.89088;-1.18784;-0.29696;0.89088;-1.18784;-0.29696;0.89088;-1.18784;-0.14848;0.89088;-1.18784;-0.14848;0.89088;-1.18784;-0.14848;0.89088;-1.18784;-0.29696;0.89088;-1.18784;-0.29696;1.03936;-1.03936;-0.29696;0.89088
1727895279000;9;3.2;0;255;255;false;92;32.9255035;32.9255031;32.9255027;32.9255025;32.9255021;32.9255015;32.9255013;32.9255009;32.925500500000005;32.925499900000005;-117.2350388;-117.2350388;-117.2350388;-117.2350388;-117.2350388;-117.2350388;-117.2350384;-117.2350384;-117.2350384;-117.2350384;0.111;0.278;0.389;0.417;0.444;0.556;0.417;0.444;0.333;0.417;-0.562176;0.0;-0.749568;-0.562176;0.0;-0.749568;-0.562176;0.0;-0.749568;-0.562176;0.0;-0.749568;-0.562176;0.0;-0.749568;-0.562176;0.0;-0.749568;-0.562176;0.0;-0.749568;-0.562176;0.0;-0.749568;-0.562176;0.187392;-0.749568;-0.562176;0.187392;-0.749568;-0.562176;0.0;-0.749568;-0.562176;0.0;-0.749568;-0.562176;0.0;-0.749568;-0.562176;0.0;-0.749568;-0.562176;0.0;-0.749568;-0.562176;0.0;-0.749568;-0.562176;0.0;-0.749568;-0.562176;0.0;-0.749568;-0.562176;0.0;-0.749568;-0.562176;-0.187392;-0.749568;-0.562176;-0.187392;-0.749568;-0.562176;-0.187392;-0.749568;-0.749568;-0.187392;-0.749568;-0.749568;-0.187392;-0.749568;-0.749568;-0.187392;-0.749568;-0.749568;-0.374784;-0.93696;-0.749568;-0.374784;-0.93696;-0.749568;-0.374784;-0.93696;-0.749568;-0.562176;-0.93696;-0.749568;-0.562176;-0.93696;-0.749568;-0.562176;-0.93696;-0.749568;-0.562176;-0.93696;-0.749568;-0.374784;-0.749568;-0.749568;-0.374784;-0.749568;-0.749568;-0.374784;-0.749568;-0.749568;-0.374784;-0.749568;-0.749568;-0.374784;-0.749568;-0.749568;-0.374784;-0.749568;-0.749568;-0.374784;-0.749568;-0.749568;-0.374784;-0.562176;-0.749568;-0.374784;-0.749568;-0.749568;-0.374784;-0.749568;-0.749568;-0.374784;-0.749568;-0.749568;-0.187392;-0.749568;-0.749568;-0.187392;-0.749568;-0.749568;-0.187392;-0.749568;-0.562176;-0.374784;-0.562176;-0.562176;-0.374784;-0.562176;-0.562176;-0.374784;-0.562176;-0.562176;-0.187392;-0.562176;-0.562176;-0.187392;-0.749568;-0.562176;-0.187392;-0.749568;-0.562176;-0.187392;-0.749568;-0.562176;-0.187392;-0.749568;-0.562176;-0.187392;-0.749568;-0.562176;-0.187392;-0.749568;-0.562176;-0.187392;-0.749568;-0.562176;-0.187392;-0.749568;-0.562176;-0.187392;-0.749568;-0.562176;-0.187392;-0.749568;-0.562176;-0.187392;-0.749568;-0.562176;-0.187392;-0.749568;-0.562176;-0.187392;-0.749568;-0.562176;-0.187392;-0.749568;-0.562176;-0.187392;-0.749568;-0.562176;-0.187392;-0.749568;-0.749568;-0.187392;-0.749568;-0.749568;-0.187392;-0.749568;-0.749568;-0.187392;-0.749568;-0.749568;-0.187392;-0.749568;-0.749568;-0.187392;-0.749568;-0.749568;-0.374784;-0.749568;-0.749568;-0.374784;-0.749568;-0.749568;-0.374784;-0.93696;-0.749568;-0.374784;-0.93696;-0.749568;-0.374784;-0.93696;-0.749568;-0.374784;-0.749568;-0.749568;-0.374784;-0.749568;-0.749568;-0.374784;-0.749568;-0.749568;-0.374784;-0.749568;17.92;-35.84;-17.92;17.92;-17.92;-17.92;-17.92;0.0;0.0;-35.84;0.0;17.92;-53.760000000000005;0.0;17.92;-71.68;0.0;17.92;-53.760000000000005;0.0;17.92;-53.760000000000005;-17.92;17.92;-35.84;-17.92;-17.92;-17.92;-17.92;-17.92;0.0;-35.84;-35.84;0.0;-17.92;-53.760000000000005;0.0;-17.92;-53.760000000000005;0.0;-17.92;-53.760000000000005;-17.92;-17.92;-35.84;-17.92;0.0;-35.84;-17.92;0.0;-35.84;-35.84;0.0;-35.84;-35.84;0.0;-17.92;-17.92;0.0;-17.92;-1.03936;-0.44544;0.89088;-1.03936;-0.44544;0.89088;-1.03936;-0.44544;0.89088;-0.89088;-0.44544;0.89088;-1.03936;-0.44544;1.03936;-1.03936;-0.29696;1.03936;-1.03936;-0.29696;1.03936;-1.03936;-0.29696;1.03936;-1.03936;-0.14848;1.03936;-1.03936;-0.14848;1.03936;-1.03936;-0.14848;1.18784;-0.89088;-0.14848;1.03936;-0.89088;-0.14848;1.18784;-0.89088;-0.29696;1.18784;-0.89088;-0.29696;1.18784;-0.89088;-0.29696;1.18784;-0.89088;-0.14848;1.03936;-0.7424;-0.29696;1.18784;-0.7424;-0.29696;1.18784;-0.7424;-0.14848;1.18784
1727895280000;9;3.2;0;255;255;false;92;32.9254995;32.9254991;32.9254991;32.9254991;32.9254991;32.9254991;32.925499300000006;32.925499300000006;32.925499300000006;32.92549950000001;-117.2350385;-117.2350385;-117.2350387;-117.23503910000001;-117.23503950000001;-117.23503970000002;-117.23503970000002;-117.23503970000002;-117.23503990000002;-117.23504030000002;0.414;0.442;0.136;0.136;0.219;0.219;0.192;0.136;0.136;0.275;-0.749568;-0.374784;-0.749568;-0.749568;-0.374784;-0.749568;-0.749568;-0.374784;-0.749568;-0.749568;-0.374784;-0.749568;-0.749568;-0.374784;-0.749568;-0.749568;-0.374784;-0.749568;-0.749568;-0.374784;-0.749568;-0.749568;-0.187392;-0.749568;-0.749568;-0.187392;-0.749568;-0.562176;-0.187392;-0.749568;-0.562176;-0.187392;-0.749568;-0.749568;-0.187392;-0.749568;-0.749568;-0.187392;-0.749568;-0.749568;-0.187392;-0.749568;-0.562176;-0.187392;-0.749568;-0.562176;-0.187392;-0.749568;-0.562176;-0.187392;-0.749568;-0.749568;-0.187392;-0.749568;-0.749568;-0.187392;-0.749568;-0.749568;-0.187392;-0.749568;-0.749568;-0.187392;-0.749568;-0.749568;-0.187392;-0.749568;-0.749568;-0.187392;-0.749568;-0.749568;0.0;-0.749568;-0.749568;0.0;-0.749568;-0.749568;0.0;-0.749568;-0.749568;0.0;-0.749568;-0.749568;0.0;-0.749568;-0.749568;-0.187392;-0.749568;-0.749568;-0.187392;-0.749568;-0.749568;-0.187392;-0.93696;-0.749568;-0.187392;-0.749568;-0.749568;-0.187392;-0.749568;-0.749568;0.0;-0.749568;-0.749568;0.0;-0.93696;-0.749568;0.0;-0.93696;-0.93696;0.0;-0.93696;-0.93696;0.187392;-0.93696;-0.93696;0.187392;-0.93696;-0.749568;0.187392;-0.93696;-0.749568;0.187392;-0.93696;-0.749568;0.187392;-0.93696;-0.749568;0.187392;-0.93696;-0.749568;0.187392;-0.93696;-0.749568;0.374784;-0.93696;-0.749568;0.374784;-0.749568;-0.749568;0.374784;-0.749568;-0.749568;0.187392;-0.749568;-0.749568;0.187392;-0.749568;-0.749568;0.0;-0.749568;-0.749568;0.0;-0.93696;-0.749568;0.0;-0.749568;-0.562176;0.0;-0.749568;-0.562176;0.0;-0.749568;-0.562176;0.0;-0.749568;-0.562176;0.0;-0.749568;-0.562176;0.0;-0.749568;-0.562176;-0.187392;-0.749568;-0.749568;-0.187392;-0.749568;-0.749568;-0.187392;-0.749568;-0.749568;-0.187392;-0.749568;-0.749568;-0.187392;-0.749568;-0.749568;-0.187392;-0.749568;-0.749568;-0.187392;-0.562176;-0.749568;-0.187392;-0.562176;-0.749568;0.0;-0.562176;-0.749568;0.0;-0.749568;-0.749568;0.0;-0.749568;-0.749568;0.0;-0.749568;-0.749568;0.0;-0.749568;-0.749568;0.0;-0.749568;-0.749568;0.0;-0.749568;-0.749568;0.0;-0.749568;-0.749568;0.0;-0.749568;-0.749568;0.0;-0.749568;-0.749568;0.0;-0.749568;-0.749568;0.0;-0.749568;-0.749568;0.0;-0.749568;-0.749568;0.187392;-0.749568;-0.749568;0.187392;-0.749568;0.0;0.0;-17.92;17.92;0.0;-35.84;17.92;0.0;-35.84;35.84;0.0;-17.92;35.84;0.0;-17.92;17.92;0.0;-35.84;0.0;0.0;-17.92;0.0;17.92;0.0;17.92;-17.92;-17.92;35.84;-17.92;-17.92;17.92;-35.84;-17.92;0.0;-35.84;0.0;-17.92;-17.92;17.92;-17.92;0.0;0.0;0.0;0.0;17.92;17.92;0.0;17.92;53.760000000000005;0.0;17.92;53.760000000000005;0.0;17.92;53.760000000000005;-17.92;17.92;71.68;-17.92;0.0;-0.7424;-0.14848;1.18784;-0.7424;-0.29696;1.18784;-0.7424;-0.29696;1.18784;-0.7424;-0.29696;1.18784;-0.7424;-0.29696;1.03936;-0.7424;-0.29696;1.18784;-0.7424;-0.29696;1.18784;-0.7424;-0.29696;1.18784;-0.7424;-0.29696;1.18784;-0.7424;-0.44544;1.03936;-0.7424;-0.44544;1.03936;-0.7424;-0.44544;1.03936;-0.7424;-0.44544;1.03936;-0.59392;-0.44544;1.03936;-0.7424;-0.44544;1.03936;-0.7424;-0.44544;1.03936;-0.7424;-0.44544;1.03936;-0.7424;-0.44544;1.03936;-0.7424;-0.59392;1.03936;-0.7424;-0.59392;0.89088
1727895281000;9;3.2;0;255;255;false;92;32.9255;32.9255004;32.9255004;32.925500799999995;32.925501;32.9255016;32.925501999999994;32.925502599999994;32.92550299999999;32.92550359999999;-117.2350404;-117.2350404;-117.23504;-117.2350392;-117.235039;-117.2350386;-117.23503819999999;-117.23503799999999;-117.23503739999998;-117.23503699999998;0.278;0.361;0.25;0.556;0.472;0.667;0.611;0.722;0.667;0.639;-0.749568;0.374784;-0.749568;-0.749568;0.374784;-0.93696;-0.749568;0.374784;-0.93696;-0.749568;0.374784;-0.93696;-0.749568;0.374784;-0.93696;-0.749568;0.374784;-0.93696;-0.749568;0.374784;-0.93696;-0.749568;0.374784;-0.93696;-0.749568;0.187392;-0.93696;-0.749568;0.187392;-0.93696;-0.749568;0.187392;-0.93696;-0.749568;0.187392;-0.93696;-0.749568;0.187392;-0.749568;-0.749568;0.187392;-0.749568;-0.749568;0.187392;-0.749568;-0.562176;0.187392;-0.749568;-0.562176;0.187392;-0.749568;-0.562176;0.187392;-0.749568;-0.562176;0.187392;-0.749568;-0.562176;0.187392;-0.749568;-0.562176;0.187392;-0.749568;-0.562176;0.187392;-0.749568;-0.562176;0.187392;-0.749568;-0.562176;0.187392;-0.749568;-0.562176;0.187392;-0.749568;-0.374784;0.187392;-0.749568;-0.374784;0.187392;-0.749568;-0.374784;0.187392;-0.93696;-0.374784;0.0;-0.749568;-0.374784;0.0;-0.749568;-0.374784;0.0;-0.749568;-0.374784;0.0;-0.93696;-0.374784;0.0;-0.93696;-0.374784;0.0;-0.93696;-0.374784;0.0;-0.93696;-0.562176;0.0;-0.93696;-0.562176;0.0;-0.93696;-0.562176;0.0;-0.93696;-0.562176;0.0;-0.93696;-0.562176;0.0;-0.93696;-0.562176;0.0;-0.93696;-0.562176;0.0;-0.93696;-0.562176;0.0;-0.93696;-0.562176;0.0;-0.93696;-0.562176;0.0;-0.93696;-0.562176;0.0;-0.93696;-0.562176;0.0;-0.93696;-0.374784;0.0;-0.93696;-0.562176;0.0;-0.93696;-0.562176;0.0;-0.93696;-0.374784;0.0;-0.93696;-0.374784;0.0;-0.93696;-0.374784;0.0;-0.93696;-0.562176;0.0;-0.93696;-0.562176;0.0;-0.93696;-0.562176;0.0;-0.93696;-0.562176;0.0;-0.93696;-0.562176;0.0;-0.93696;-0.374784;0.0;-0.93696;-0.374784;0.0;-0.93696;-0.374784;0.0;-0.93696;-0.374784;0.0;-0.93696;-0.562176;0.0;-0.93696;-0.562176;0.0;-0.93696;-0.562176;0.0;-0.93696;-0.562176;0.0;-0.93696;-0.374784;0.0;-0.93696;-0.374784;0.0;-0.93696;-0.374784;0.0;-0.93696;-0.374784;0.187392;-0.93696;-0.374784;0.187392;-0.93696;-0.374784;0.187392;-0.93696;-0.374784;0.187392;-0.93696;-0.374784;0.187392;-0.93696;-0.374784;0.187392;-0.93696;-0.374784;0.187392;-0.93696;-0.374784;0.187392;-0.93696;-0.374784;0.0;-0.749568;-0.374784;0.0;-0.749568;-0.374784;0.0;-0.749568;53.760000000000005;-35.84;0.0;17.92;-35.84;17.92;17.92;-35.84;35.84;0.0;-35.84;35.84;0.0;-35.84;35.84;0.0;-35.84;35.84;-17.92;-35.84;53.760000000000005;-17.92;-17.92;53.760000000000005;-17.92;-17.92;71.68;0.0;-17.92;71.68;0.0;-17.92;53.760000000000005;17.92;-17.92;53.760000000000005;17.92;-17.92;71.68;35.84;-17.92;71.68;35.84;-17.92;71.68;35.84;-17.92;71.68;17.92;0.0;53.760000000000005;17.92;0.0;53.760000000000005;17.92;0.0;53.760000000000005;0.0;0.0;71.68;-0.59392;-0.59392;0.89088;-0.59392;-0.59392;0.89088;-0.59392;-0.59392;0.89088;-0.59392;-0.59392;0.7424;-0.59392;-0.59392;0.89088;-0.59392;-0.59392;0.7424;-0.59392;-0.59392;0.89088;-0.59392;-0.59392;0.89088;-0.7424;-0.59392;0.89088;-0.7424;-0.59392;0.89088;-0.7424;-0.59392;0.89088;-0.7424;-0.59392;0.89088;-0.7424;-0.59392;1.03936;-0.7424;-0.59392;1.03936;-0.89088;-0.59392;0.89088;-0.7424;-0.59392;0.89088;-0.89088;-0.59392;0.89088;-0.89088;-0.59392;0.89088;-0.89088;-0.59392;0.89088;-0.89088;-0.44544;0.89088
1727895282000;9;3.2;0;255;255;false;92;32.9255043;32.9255045;32.9255051;32.9255057;32.925505900000005;32.9255063;32.9255067;32.9255069;32.9255069;32.9255073;-117.2350364;-117.235036;-117.235036;-117.23503579999999;-117.23503539999999;-117.23503519999998;-117.23503499999998;-117.23503459999998;-117.23503439999998;-117.23503399999997;0.714;0.575;0.436;0.464;0.353;0.436;0.492;0.408;0.269;0.381;-0.374784;0.0;-0.749568;-0.374784;0.0;-0.749568;-0.374784;0.0;-0.749568;-0.374784;0.0;-0.749568;-0.374784;0.0;-0.749568;-0.374784;0.0;-0.749568;-0.374784;0.0;-0.749568;-0.374784;0.0;-0.749568;-0.374784;0.0;-0.749568;-0.374784;0.0;-0.749568;-0.374784;0.0;-0.749568;-0.562176;0.0;-0.749568;-0.562176;0.0;-0.749568;-0.562176;0.0;-0.749568;-0.562176;0.0;-0.749568;-0.562176;0.0;-0.749568;-0.562176;0.0;-0.93696;-0.562176;0.0;-0.749568;-0.562176;0.0;-0.749568;-0.562176;0.0;-0.749568;-0.562176;0.0;-0.93696;-0.562176;0.0;-0.93696;-0.749568;-0.187392;-0.93696;-0.749568;-0.187392;-0.93696;-0.749568;-0.187392;-0.93696;-0.749568;-0.187392;-0.93696;-0.562176;-0.187392;-0.93696;-0.562176;-0.187392;-0.93696;-0.562176;-0.187392;-0.93696;-0.562176;0.0;-0.93696;-0.562176;0.0;-0.93696;-0.562176;0.0;-0.93696;-0.749568;0.0;-0.93696;-0.749568;0.187392;-0.93696;-0.749568;0.187392;-0.749568;-0.749568;0.187392;-0.749568;-0.749568;0.187392;-0.749568;-0.749568;0.187392;-0.749568;-0.749568;0.374784;-0.749568;-0.749568;0.374784;-0.749568;-0.93696;0.562176;-0.749568;-0.749568;0.562176;-0.749568;-0.749568;0.374784;-0.749568;-0.749568;0.374784;-0.749568;-0.749568;0.374784;-0.749568;-0.749568;0.374784;-0.749568;-0.749568;0.562176;-0.749568;-0.749568;0.562176;-0.749568;-0.749568;0.562176;-0.749568;-0.749568;0.562176;-0.749568;-0.749568;0.562176;-0.749568;-0.749568;0.562176;-0.749568;-0.749568;0.562176;-0.749568;-0.562176;0.374784;-0.749568;-0.749568;0.374784;-0.749568;-0.749568;0.374784;-0.749568;-0.749568;0.187392;-0.749568;-0.562176;0.374784;-0.749568;-0.562176;0.374784;-0.749568;-0.562176;0.187392;-0.749568;-0.562176;0.187392;-0.749568;-0.562176;0.187392;-0.749568;-0.562176;0.187392;-0.749568;-0.374784;0.374784;-0.93696;-0.374784;0.374784;-0.93696;-0.374784;0.374784;-0.93696;-0.374784;0.374784;-0.93696;-0.562176;0.374784;-0.749568;-0.374784;0.187392;-0.749568;-0.374784;0.187392;-0.749568;-0.562176;0.187392;-0.749568;-0.749568;0.187392;-0.93696;-0.749568;0.187392;-0.93696;-0.749568;0.374784;-0.93696;-0.562176;0.374784;-0.93696;-0.562176;0.374784;-0.93696;-0.562176;0.374784;-0.93696;-0.562176;0.374784;-0.93696;-0.562176;0.374784;-0.93696;-0.562176;0.374784;-0.93696;0.0;17.92;71.68;0.0;17.92;53.760000000000005;17.92;35.84;35.84;17.92;35.84;35.84;17.92;35.84;17.92;17.92;17.92;0.0;35.84;17.92;-17.92;71.68;17.92;-35.84;89.60000000000001;0.0;-35.84;89.60000000000001;17.92;-17.92;89.60000000000001;-17.92;-17.92;53.760000000000005;-17.92;17.92;35.84;-35.84;17.92;17.92;-35.84;35.84;17.92;-35.84;35.84;17.92;-35.84;17.92;35.84;-17.92;17.92;17.92;-17.92;35.84;17.92;-17.92;17.92;0.0;-17.92;17.92;-0.89088;-0.44544;0.89088;-1.03936;-0.44544;0.89088;-1.03936;-0.44544;0.89088;-1.18784;-0.44544;0.89088;-1.18784;-0.44544;0.7424;-1.18784;-0.44544;0.7424;-1.18784;-0.44544;0.7424;-1.18784;-0.44544;0.7424;-1.18784;-0.44544;0.59392;-1.18784;-0.59392;0.59392;-1.18784;-0.59392;0.44544;-1.03936;-0.7424;0.44544;-1.18784;-0.7424;0.29696;-1.18784;-0.59392;0.29696;-1.18784;-0.59392;0.29696;-1.18784;-0.7424;0.29696;-1.18784;-0.59392;0.29696;-1.18784;-0.59392;0.44544;-1.18784;-0.59392;0.29696;-1.18784;-0.59392;0.44544
1727895283000;9;3.2;0;255;255;false;92;32.9255077;32.9255079;32.9255079;32.9255081;32.9255081;32.9255081;32.9255081;32.9255079;32.9255071;32.925506899999995;-117.2350336;-117.23503319999999;-117.23503279999998;-117.23503239999998;-117.23503239999998;-117.23503179999997;-117.23503159999997;-117.23503119999997;-117.23503079999996;-117.23503039999996;0.447;0.475;0.392;0.364;0.086;0.308;0.336;0.447;0.669;0.503;-0.562176;0.374784;-0.93696;-0.562176;0.374784;-0.93696;-0.562176;0.374784;-0.93696;-0.562176;0.374784;-0.93696;-0.562176;0.374784;-0.93696;-0.562176;0.374784;-0.93696;-0.562176;0.374784;-1.124352;-0.562176;0.374784;-1.124352;-0.562176;0.374784;-0.93696;-0.562176;0.374784;-0.93696;-0.562176;0.562176;-0.93696;-0.562176;0.562176;-0.93696;-0.562176;0.562176;-0.93696;-0.749568;0.562176;-0.93696;-0.749568;0.562176;-0.93696;-0.749568;0.562176;-0.93696;-0.562176;0.749568;-0.93696;-0.562176;0.562176;-0.93696;-0.562176;0.562176;-0.93696;-0.562176;0.562176;-0.93696;-0.562176;0.562176;-0.93696;-0.562176;0.562176;-0.93696;-0.374784;0.374784;-0.93696;-0.374784;0.374784;-0.93696;-0.374784;0.374784;-0.93696;-0.374784;0.374784;-0.93696;-0.374784;0.374784;-0.93696;-0.374784;0.374784;-0.93696;-0.374784;0.374784;-0.93696;-0.374784;0.374784;-0.93696;-0.374784;0.374784;-0.93696;-0.374784;0.374784;-0.93696;-0.374784;0.374784;-0.93696;-0.374784;0.374784;-0.93696;-0.374784;0.374784;-0.93696;-0.374784;0.374784;-0.93696;-0.374784;0.374784;-0.93696;-0.374784;0.374784;-0.93696;-0.374784;0.374784;-0.93696;-0.374784;0.187392;-0.93696;-0.374784;0.187392;-0.93696;-0.374784;0.187392;-0.93696;-0.374784;0.187392;-0.93696;-0.374784;0.187392;-0.93696;-0.374784;0.187392;-0.93696;-0.374784;0.187392;-0.93696;-0.187392;0.187392;-0.93696;-0.187392;0.374784;-0.93696;-0.187392;0.374784;-0.93696;-0.187392;0.187392;-0.93696;-0.187392;0.187392;-0.93696;0.0;0.187392;-0.93696;0.0;0.187392;-0.749568;0.187392;0.187392;-0.749568;0.187392;0.0;-0.749568;0.374784;0.0;-0.749568;0.562176;-0.187392;-0.749568;0.562176;-0.187392;-0.749568;0.374784;-0.187392;-0.93696;0.374784;-0.187392;-0.749568;0.187392;-0.187392;-0.749568;0.187392;-0.187392;-0.749568;0.374784;0.0;-0.749568;0.374784;-0.187392;-0.749568;0.374784;-0.187392;-0.749568;0.374784;-0.187392;-0.749568;0.374784;-0.187392;-0.749568;0.374784;-0.187392;-0.749568;0.562176;-0.187392;-0.749568;0.374784;-0.187392;-0.749568;0.562176;-0.187392;-0.749568;0.562176;-0.187392;-0.749568;0.562176;-0.187392;-0.562176;0.562176;-0.187392;-0.562176;0.562176;-0.187392;-0.562176;0.562176;-0.187392;-0.562176;0.562176;-0.187392;-0.562176;0.562176;-0.187392;-0.562176;0.562176;-0.187392;-0.562176;0.562176;-0.187392;-0.562176;0.0;-35.84;17.92;-17.92;-35.84;17.92;0.0;-35.84;0.0;0.0;-35.84;-17.92;-17.92;-53.760000000000005;0.0;-35.84;-53.760000000000005;0.0;-35.84;-53.760000000000005;17.92;-35.84;-53.760000000000005;17.92;-35.84;-71.68;0.0;-35.84;-71.68;0.0;-35.84;-71.68;-17.92;-35.84;-89.60000000000001;-17.92;-35.84;-107.52000000000001;-17.92;-53.760000000000005;-107.52000000000001;-17.92;-17.92;-89.60000000000001;-17.92;-35.84;-53.760000000000005;-35.84;-17.92;-71.68;-17.92;0.0;-71.68;-35.84;0.0;-53.760000000000005;-35.84;0.0;-35.84;-35.84;-1.18784;-0.59392;0.44544;-1.18784;-0.59392;0.44544;-1.18784;-0.59392;0.44544;-1.18784;-0.59392;0.44544;-1.18784;-0.59392;0.44544;-1.03936;-0.59392;0.59392;-1.03936;-0.59392;0.59392;-1.03936;-0.59392;0.7424;-1.03936;-0.59392;0.89088;-0.89088;-0.59392;0.89088;-0.89088;-0.59392;0.89088;-0.89088;-0.44544;0.89088;-0.7424;-0.44544;1.03936;-0.59392;-0.44544;1.03936;-0.59392;-0.44544;1.03936;-0.44544;-0.44544;1.03936;-0.44544;-0.44544;1.03936;-0.29696;-0.29696;1.03936;-0.29696;-0.29696;1.03936;-0.29696;-0.29696;1.03936
1727895284000;9;3.2;0;255;255;false;92;32.9255064;32.925506600000006;32.92550740000001;32.92550800000001;32.92550880000001;32.92550900000001;32.925509200000015;32.92550940000002;32.92550960000002;32.92550960000002;-117.23503;-117.23503;-117.2350302;-117.2350304;-117.2350308;-117.23503120000001;-117.235031;-117.235031;-117.23503140000001;-117.23503120000001;0.436;0.242;0.131;0.381;0.547;0.464;0.381;0.269;0.325;0.214;0.749568;-0.187392;-0.562176;0.749568;-0.187392;-0.562176;0.562176;-0.187392;-0.562176;0.562176;-0.374784;-0.562176;0.562176;-0.374784;-0.562176;0.562176;-0.374784;-0.562176;0.562176;-0.374784;-0.562176;0.562176;-0.187392;-0.562176;0.562176;-0.187392;-0.562176;0.562176;-0.187392;-0.562176;0.562176;-0.187392;-0.562176;0.562176;-0.187392;-0.562176;0.374784;-0.374784;-0.562176;0.374784;-0.374784;-0.749568;0.374784;-0.374784;-0.749568;0.374784;-0.374784;-0.749568;0.374784;-0.187392;-0.562176;0.374784;-0.187392;-0.562176;0.374784;-0.187392;-0.562176;0.374784;0.0;-0.749568;0.187392;0.0;-0.749568;0.187392;0.0;-0.749568;0.0;0.0;-0.749568;0.0;0.0;-0.93696;0.0;0.0;-0.93696;0.0;0.0;-0.93696;0.0;0.0;-0.93696;0.0;0.187392;-0.93696;0.0;0.187392;-0.93696;-0.187392;0.0;-0.93696;-0.187392;0.0;-0.93696;-0.374784;0.0;-0.93696;-0.374784;0.0;-0.93696;-0.374784;-0.187392;-0.93696;-0.187392;-0.187392;-0.93696;-0.187392;-0.187392;-0.93696;-0.187392;-0.187392;-0.93696;-0.187392;-0.187392;-0.93696;-0.374784;-0.187392;-0.93696;-0.374784;-0.187392;-1.124352;-0.374784;-0.187392;-1.124352;-0.562176;-0.187392;-1.124352;-0.562176;-0.187392;-1.124352;-0.562176;-0.187392;-0.93696;-0.562176;-0.187392;-1.124352;-0.562176;-0.187392;-0.93696;-0.562176;-0.187392;-1.124352;-0.562176;-0.187392;-1.124352;-0.562176;-0.374784;-1.124352;-0.562176;-0.374784;-1.124352;-0.749568;-0.374784;-1.124352;-0.749568;-0.374784;-1.124352;-0.749568;-0.374784;-1.124352;-0.562176;-0.562176;-1.124352;-0.562176;-0.562176;-1.124352;-0.562176;-0.562176;-0.93696;-0.562176;-0.562176;-1.124352;-0.562176;-0.562176;-1.124352;-0.749568;-0.562176;-1.124352;-0.749568;-0.562176;-0.93696;-0.749568;-0.562176;-0.93696;-0.749568;-0.562176;-0.93696;-0.749568;-0.374784;-0.93696;-0.749568;-0.374784;-0.93696;-0.562176;-0.374784;-0.93696;-0.562176;-0.374784;-0.93696;-0.749568;-0.187392;-0.93696;-0.749568;-0.187392;-0.93696;-0.749568;-0.187392;-0.93696;-0.749568;-0.187392;-0.749568;-0.562176;-0.187392;-0.749568;-0.562176;-0.187392;-0.749568;-0.562176;-0.187392;-0.749568;-0.562176;-0.187392;-0.749568;-0.562176;-0.187392;-0.749568;-0.562176;-0.374784;-0.749568;-0.562176;-0.374784;-0.749568;-0.562176;-0.374784;-0.749568;-0.562176;-0.374784;-0.749568;-0.562176;-0.562176;-0.749568;17.92;0.0;-53.760000000000005;17.92;17.92;-53.760000000000005;17.92;53.760000000000005;-71.68;17.92;71.68;-71.68;17.92;71.68;-71.68;0.0;107.52000000000001;-71.68;0.0;125.44000000000001;-35.84;-17.92;125.44000000000001;-17.92;-35.84;107.52000000000001;0.0;-17.92;107.52000000000001;0.0;-17.92;107.52000000000001;0.0;-35.84;89.60000000000001;17.92;-53.760000000000005;71.68;17.92;-35.84;53.760000000000005;17.92;-17.92;35.84;0.0;0.0;35.84;0.0;0.0;17.92;0.0;0.0;17.92;0.0;-17.92;0.0;0.0;-35.84;0.0;17.92;-0.14848;-0.29696;0.89088;-0.14848;-0.29696;1.03936;-0.14848;-0.29696;0.89088;-0.14848;-0.29696;0.89088;-0.14848;-0.29696;0.89088;-0.29696;-0.29696;1.03936;-0.29696;-0.29696;1.03936;-0.44544;-0.29696;1.03936;-0.59392;-0.29696;1.18784;-0.59392;-0.29696;1.18784;-0.7424;-0.29696;1.18784;-0.89088;-0.29696;1.03936;-0.89088;-0.14848;1.03936;-1.03936;-0.14848;1.03936;-1.03936;-0.14848;1.03936;-1.03936;-0.14848;1.03936;-1.03936;-0.14848;1.03936;-1.03936;-0.14848;1.03936;-1.03936;-0.14848;1.03936;-1.03936;-0.14848;1.03936
1727895285000;9;3.2;0;255;255;false;92;32.9255095;32.9255095;32.925509299999995;32.925509299999995;32.925509299999995;32.925509299999995;32.925509299999995;32.925509299999995;32.925509299999995;32.92550909999999;-117.2350312;-117.2350312;-117.2350312;-117.2350312;-117.2350314;-117.2350314;-117.2350314;-117.2350316;-117.235032;-117.235032;0.089;0.061;0.006;0.089;0.006;0.033;0.033;0.061;0.061;0.089;-0.562176;-0.562176;-0.749568;-0.562176;-0.562176;-0.749568;-0.749568;-0.562176;-0.749568;-0.749568;-0.749568;-0.749568;-0.749568;-0.749568;-0.749568;-0.749568;-0.749568;-0.749568;-0.749568;-0.562176;-0.749568;-0.749568;-0.562176;-0.749568;-0.562176;-0.374784;-0.749568;-0.562176;-0.374784;-0.749568;-0.562176;-0.374784;-0.749568;-0.562176;-0.374784;-0.749568;-0.562176;-0.187392;-0.749568;-0.562176;-0.374784;-0.749568;-0.562176;-0.374784;-0.749568;-0.562176;-0.374784;-0.749568;-0.562176;-0.374784;-0.749568;-0.562176;-0.374784;-0.749568;-0.562176;-0.374784;-0.749568;-0.562176;-0.374784;-0.749568;-0.562176;-0.374784;-0.749568;-0.562176;-0.374784;-0.749568;-0.562176;-0.374784;-0.749568;-0.562176;-0.374784;-0.749568;-0.562176;-0.374784;-0.749568;-0.562176;-0.374784;-0.749568;-0.562176;-0.374784;-0.749568;-0.562176;-0.374784;-0.749568;-0.562176;-0.374784;-0.749568;-0.562176;-0.374784;-0.749568;-0.562176;-0.374784;-0.749568;-0.562176;-0.374784;-0.749568;-0.562176;-0.374784;-0.749568;-0.562176;-0.374784;-0.749568;-0.562176;-0.374784;-0.749568;-0.562176;-0.374784;-0.749568;-0.562176;-0.374784;-0.749568;-0.562176;-0.374784;-0.749568;-0.562176;-0.374784;-0.749568;-0.562176;-0.374784;-0.749568;-0.562176;-0.374784;-0.749568;-0.562176;-0.374784;-0.749568;-0.562176;-0.562176;-0.749568;-0.562176;-0.562176;-0.749568;-0.562176;-0.562176;-0.749568;-0.562176;-0.562176;-0.749568;-0.562176;-0.374784;-0.749568;-0.562176;-0.374784;-0.749568;-0.562176;-0.374784;-0.749568;-0.562176;-0.562176;-0.749568;-0.749568;-0.374784;-0.749568;-0.562176;-0.374784;-0.749568;-0.562176;-0.374784;-0.749568;-0.562176;-0.374784;-0.749568;-0.562176;-0.374784;-0.749568;-0.562176;-0.374784;-0.749568;-0.562176;-0.374784;-0.749568;-0.562176;-0.374784;-0.749568;-0.562176;-0.374784;-0.749568;-0.562176;-0.374784;-0.749568;-0.562176;-0.374784;-0.749568;-0.562176;-0.374784;-0.749568;-0.562176;-0.374784;-0.749568;-0.562176;-0.374784;-0.749568;-0.562176;-0.374784;-0.749568;-0.562176;-0.374784;-0.562176;-0.562176;-0.562176;-0.562176;-0.562176;-0.562176;-0.562176;-0.562176;-0.562176;-0.562176;-0.562176;-0.562176;-0.562176;-0.562176;-0.562176;-0.562176;-0.749568;-0.562176;-0.562176;-0.749568;-0.562176;-0.749568;-0.562176;-0.562176;-0.749568;-0.562176;-0.562176;-0.749568;-0.749568;-0.562176;-0.749568;-0.749568;-0.562176;-0.749568;-0.749568;-0.562176;-0.749568;-0.749568;-0.562176;-0.749568;-0.749568;-0.562176;-0.749568;-17.92;0.0;17.92;0.0;0.0;0.0;17.92;0.0;-17.92;17.92;0.0;0.0;0.0;0.0;0.0;0.0;0.0;0.0;0.0;0.0;0.0;0.0;0.0;0.0;0.0;0.0;0.0;0.0;0.0;0.0;-17.92;0.0;0.0;0.0;0.0;0.0;0.0;0.0;0.0;17.92;0.0;0.0;0.0;0.0;0.0;-17.92;0.0;0.0;-17.92;0.0;17.92;-17.92;17.92;0.0;-17.92;0.0;0.0;0.0;0.0;0.0;-1.03936;-0.14848;1.03936;-1.18784;-0.14848;1.03936;-1.18784;-0.14848;1.03936;-1.18784;-0.14848;1.03936;-1.18784;-0.14848;1.03936;-1.03936;-0.14848;1.03936;-1.03936;-0.14848;1.03936;-1.18784;-0.14848;1.03936;-1.18784;-0.14848;1.03936;-1.18784;-0.14848;1.03936;-1.18784;-0.14848;1.03936;-1.03936;-0.14848;1.03936;-1.03936;-0.14848;1.03936;-1.18784;-0.14848;1.03936;-1.18784;-0.14848;1.03936;-1.18784;-0.14848;1.03936;-1.18784;-0.14848;1.03936;-1.18784;0.0;0.89088;-1.18784;0.0;1.03936;-1.18784;0.0;1.03936
1727895286000;9;3.2;0;255;255;false;92;32.9255094;32.9255094;32.925509600000005;32.925509600000005;32.925509600000005;32.92551;32.9255104;32.92551;32.9255098;32.92551;-117.2350322;-117.2350322;-117.23503240000001;-117.23503240000001;-117.23503260000001;-117.23503280000001;-117.23503280000001;-117.23503240000001;-117.23503240000001;-117.23503240000001;0.036;0.064;0.064;0.064;0.064;0.231;0.258;0.092;0.036;0.119;-0.749568;-0.562176;-0.749568;-0.749568;-0.562176;-0.749568;-0.749568;-0.562176;-0.749568;-0.749568;-0.374784;-0.749568;-0.749568;-0.374784;-0.749568;-0.749568;-0.374784;-0.749568;-0.749568;-0.374784;-0.749568;-0.749568;-0.374784;-0.749568;-0.749568;-0.374784;-0.749568;-0.749568;-0.374784;-0.749568;-0.562176;-0.374784;-0.749568;-0.562176;-0.374784;-0.749568;-0.562176;-0.374784;-0.749568;-0.562176;-0.374784;-0.749568;-0.562176;-0.374784;-0.562176;-0.562176;-0.374784;-0.562176;-0.562176;-0.374784;-0.562176;-0.562176;-0.374784;-0.562176;-0.562176;-0.562176;-0.562176;-0.562176;-0.562176;-0.562176;-0.562176;-0.562176;-0.562176;-0.562176;-0.562176;-0.749568;-0.562176;-0.562176;-0.749568;-0.562176;-0.562176;-0.749568;-0.562176;-0.749568;-0.749568;-0.562176;-0.749568;-0.749568;-0.749568;-0.749568;-0.749568;-0.749568;-0.749568;-0.749568;-0.749568;-0.749568;-0.749568;-0.749568;-0.562176;-0.749568;-0.749568;-0.562176;-0.749568;-0.749568;-0.562176;-0.749568;-0.749568;-0.562176;-0.749568;-0.562176;-0.562176;-0.749568;-0.562176;-0.562176;-0.749568;-0.749568;-0.562176;-0.749568;-0.749568;-0.374784;-0.93696;-0.749568;-0.374784;-0.749568;-0.749568;-0.374784;-0.749568;-0.562176;-0.374784;-0.749568;-0.562176;-0.374784;-0.749568;-0.562176;-0.187392;-0.749568;-0.562176;-0.187392;-0.749568;-0.562176;-0.187392;-0.749568;-0.562176;-0.374784;-0.749568;-0.562176;-0.374784;-0.749568;-0.562176;-0.374784;-0.749568;-0.562176;-0.374784;-0.749568;-0.562176;-0.187392;-0.749568;-0.562176;-0.187392;-0.749568;-0.562176;-0.187392;-0.749568;-0.562176;-0.187392;-0.749568;-0.562176;-0.187392;-0.749568;-0.374784;-0.187392;-0.749568;-0.374784;-0.187392;-0.749568;-0.374784;-0.187392;-0.749568;-0.374784;-0.187392;-0.749568;-0.374784;-0.187392;-0.749568;-0.374784;-0.187392;-0.749568;-0.374784;-0.187392;-0.749568;-0.374784;-0.187392;-0.749568;-0.374784;-0.187392;-0.749568;-0.187392;-0.374784;-0.749568;-0.374784;-0.374784;-0.749568;-0.374784;-0.374784;-0.749568;-0.374784;-0.374784;-0.749568;-0.374784;-0.187392;-0.749568;-0.374784;-0.187392;-0.749568;-0.374784;-0.187392;-0.749568;-0.374784;-0.187392;-0.749568;-0.374784;-0.187392;-0.749568;-0.374784;-0.187392;-0.749568;-0.374784;-0.187392;-0.749568;-0.374784;0.0;-0.93696;-0.374784;0.0;-0.93696;-0.374784;0.187392;-0.93696;-0.374784;0.187392;-0.93696;-0.374784;0.187392;-0.93696;-0.562176;0.374784;-0.93696;-0.562176;0.374784;-0.93696;17.92;0.0;-17.92;17.92;-17.92;0.0;0.0;-17.92;0.0;-17.92;0.0;17.92;-17.92;0.0;17.92;0.0;0.0;17.92;17.92;0.0;17.92;35.84;0.0;0.0;53.760000000000005;-17.92;17.92;53.760000000000005;-17.92;17.92;53.760000000000005;-35.84;17.92;53.760000000000005;-35.84;17.92;53.760000000000005;-35.84;17.92;53.760000000000005;-35.84;17.92;53.760000000000005;-35.84;17.92;53.760000000000005;-35.84;17.92;53.760000000000005;-17.92;0.0;71.68;0.0;0.0;89.60000000000001;0.0;-17.92;89.60000000000001;17.92;-17.92;-1.18784;0.0;1.03936;-1.18784;-0.14848;0.89088;-1.18784;-0.14848;1.03936;-1.18784;-0.14848;1.03936;-1.18784;0.0;1.03936;-1.18784;0.0;0.89088;-1.18784;0.0;0.89088;-1.18784;0.0;0.89088;-1.18784;-0.14848;0.89088;-1.18784;-0.14848;1.03936;-1.18784;-0.14848;1.03936;-1.03936;-0.14848;1.03936;-1.03936;-0.29696;1.03936;-1.03936;-0.29696;1.03936;-1.03936;-0.29696;1.03936;-1.03936;-0.29696;1.03936;-1.03936;-0.29696;1.03936;-1.03936;-0.44544;1.03936;-1.03936;-0.44544;0.89088;-1.03936;-0.44544;0.89088
1727895287000;9;3.2;0;255;255;false;92;32.9255103;32.9255103;32.9255103;32.9255101;32.9255101;32.9255101;32.925509899999994;32.92550909999999;32.92550849999999;32.92550789999999;-117.2350321;-117.2350321;-117.2350321;-117.2350321;-117.23503149999999;-117.23503089999998;-117.23503069999998;-117.23503029999998;-117.23502989999997;-117.23502949999997;0.3;0.272;0.189;0.133;0.3;0.439;0.328;0.411;0.494;0.578;-0.562176;0.374784;-1.124352;-0.562176;0.374784;-1.124352;-0.562176;0.374784;-1.124352;-0.562176;0.374784;-1.124352;-0.562176;0.374784;-1.124352;-0.562176;0.374784;-1.124352;-0.562176;0.374784;-1.124352;-0.562176;0.374784;-1.124352;-0.749568;0.374784;-1.124352;-0.749568;0.187392;-1.124352;-0.562176;0.187392;-1.124352;-0.562176;0.187392;-1.124352;-0.562176;0.187392;-1.124352;-0.562176;0.187392;-1.124352;-0.562176;0.187392;-1.124352;-0.562176;0.187392;-1.124352;-0.562176;0.187392;-1.124352;-0.562176;0.187392;-1.124352;-0.562176;0.187392;-1.124352;-0.562176;0.187392;-1.124352;-0.562176;0.0;-1.124352;-0.562176;0.0;-1.124352;-0.562176;0.0;-1.124352;-0.374784;0.0;-1.124352;-0.374784;0.0;-1.124352;-0.374784;0.0;-1.124352;-0.374784;0.0;-1.124352;-0.187392;0.0;-1.124352;-0.187392;0.0;-1.124352;-0.187392;0.0;-1.124352;-0.187392;0.0;-1.124352;0.0;0.0;-1.124352;0.0;0.0;-1.124352;0.0;0.0;-1.124352;0.0;0.187392;-1.124352;0.0;0.187392;-1.124352;0.0;0.187392;-1.124352;0.0;0.187392;-0.93696;0.0;0.187392;-0.93696;0.0;0.187392;-0.93696;0.0;0.187392;-0.93696;0.0;0.187392;-0.93696;-0.187392;0.187392;-0.93696;-0.187392;0.187392;-0.93696;-0.187392;0.187392;-0.93696;0.0;0.187392;-0.93696;0.0;0.187392;-0.93696;0.0;0.187392;-0.93696;0.0;0.187392;-0.93696;0.0;0.187392;-0.93696;0.0;0.187392;-0.93696;0.0;0.187392;-0.93696;0.0;0.187392;-0.749568;0.187392;0.187392;-0.749568;0.187392;0.187392;-0.749568;0.187392;0.187392;-0.749568;0.187392;0.187392;-0.749568;0.187392;0.187392;-0.749568;0.187392;0.187392;-0.749568;0.187392;0.187392;-0.749568;0.187392;0.187392;-0.749568;0.187392;0.187392;-0.749568;0.374784;0.0;-0.749568;0.374784;0.0;-0.749568;0.374784;0.0;-0.749568;0.374784;0.0;-0.749568;0.374784;0.0;-0.749568;0.374784;0.0;-0.749568;0.374784;0.0;-0.749568;0.374784;0.0;-0.749568;0.562176;0.0;-0.749568;0.562176;0.0;-0.749568;0.562176;0.0;-0.749568;0.562176;0.0;-0.749568;0.562176;0.0;-0.749568;0.562176;0.0;-0.749568;0.562176;0.0;-0.749568;0.562176;0.0;-0.749568;0.562176;0.0;-0.749568;0.562176;0.187392;-0.749568;53.760000000000005;0.0;-17.92;17.92;0.0;0.0;0.0;-17.92;0.0;-17.92;-35.84;0.0;-17.92;-53.760000000000005;17.92;-17.92;-71.68;17.92;-17.92;-107.52000000000001;0.0;0.0;-107.52000000000001;-17.92;0.0;-107.52000000000001;-35.84;0.0;-89.60000000000001;-35.84;0.0;-71.68;-35.84;0.0;-89.60000000000001;-35.84;0.0;-89.60000000000001;-35.84;0.0;-89.60000000000001;-35.84;17.92;-89.60000000000001;-35.84;17.92;-89.60000000000001;-53.760000000000005;35.84;-89.60000000000001;-71.68;53.760000000000005;-71.68;-89.60000000000001;89.60000000000001;-71.68;-89.60000000000001;89.60000000000001;-53.760000000000005;-107.52000000000001;-1.03936;-0.59392;0.7424;-1.03936;-0.59392;0.7424;-1.03936;-0.59392;0.7424;-1.03936;-0.59392;0.7424;-0.89088;-0.59392;0.7424;-0.89088;-0.59392;0.89088;-0.89088;-0.59392;0.89088;-0.7424;-0.59392;0.89088;-0.7424;-0.59392;0.89088;-0.59392;-0.59392;0.89088;-0.44544;-0.59392;0.89088;-0.44544;-0.59392;0.89088;-0.29696;-0.59392;0.89088;-0.14848;-0.59392;0.7424;-0.14848;-0.59392;0.7424;0.0;-0.59392;0.59392;0.0;-0.59392;0.59392;0.14848;-0.59392;0.44544;0.29696;-0.59392;0.29696;0.29696;-0.59392;0.14848
1727895288000;9;3.2;0;255;255;false;92;32.9255072;32.9255068;32.9255064;32.925506000000006;32.92550560000001;32.92550520000001;32.92550460000001;32.92550420000001;32.925503800000016;32.92550300000001;-117.2350289;-117.2350287;-117.2350283;-117.23502789999999;-117.23502729999998;-117.23502709999998;-117.23502689999998;-117.23502689999998;-117.23502649999998;-117.23502589999997;0.75;0.694;0.694;0.639;0.611;0.583;0.583;0.528;0.583;0.75;0.749568;0.187392;-0.749568;0.749568;0.187392;-0.749568;0.749568;0.187392;-0.749568;0.749568;0.187392;-0.749568;0.749568;0.187392;-0.749568;0.749568;0.187392;-0.749568;0.749568;0.187392;-0.749568;0.749568;0.187392;-0.749568;0.749568;0.0;-0.749568;0.749568;0.0;-0.749568;0.749568;0.0;-0.749568;0.749568;0.0;-0.749568;0.749568;0.0;-0.749568;0.749568;-0.187392;-0.562176;0.749568;0.0;-0.562176;0.749568;0.0;-0.562176;0.749568;0.0;-0.562176;0.749568;0.0;-0.562176;0.749568;-0.187392;-0.562176;0.749568;-0.187392;-0.562176;0.749568;-0.187392;-0.562176;0.749568;-0.187392;-0.562176;0.93696;-0.187392;-0.562176;0.93696;0.0;-0.562176;0.93696;0.0;-0.562176;0.93696;0.0;-0.562176;0.93696;0.0;-0.562176;0.93696;0.0;-0.562176;0.93696;0.0;-0.562176;0.93696;0.0;-0.562176;0.93696;0.0;-0.562176;0.749568;0.0;-0.562176;0.749568;0.0;-0.374784;0.749568;0.0;-0.374784;0.749568;0.0;-0.374784;0.749568;0.0;-0.374784;0.93696;0.0;-0.374784;0.749568;0.0;-0.374784;0.749568;0.0;-0.374784;0.749568;0.0;-0.374784;0.749568;0.0;-0.374784;0.749568;0.0;-0.374784;0.749568;0.0;-0.374784;0.749568;0.0;-0.374784;0.749568;0.0;-0.374784;0.749568;0.0;-0.374784;0.749568;0.0;-0.374784;0.749568;0.187392;-0.374784;0.749568;0.187392;-0.374784;0.749568;0.187392;-0.374784;0.93696;0.187392;-0.562176;0.93696;0.187392;-0.562176;0.93696;0.187392;-0.562176;0.749568;0.187392;-0.562176;0.749568;0.187392;-0.562176;0.749568;0.187392;-0.562176;0.749568;0.187392;-0.562176;0.749568;0.187392;-0.562176;0.749568;0.187392;-0.562176;0.749568;0.187392;-0.562176;0.749568;0.187392;-0.562176;0.749568;0.187392;-0.562176;0.749568;0.0;-0.562176;0.749568;0.0;-0.374784;0.749568;0.0;-0.374784;0.749568;0.0;-0.374784;0.749568;0.0;-0.374784;0.749568;-0.187392;-0.374784;0.749568;-0.187392;-0.374784;0.749568;-0.187392;-0.374784;0.749568;-0.187392;-0.562176;0.93696;0.0;-0.562176;0.93696;0.0;-0.562176;0.749568;0.0;-0.562176;0.749568;0.0;-0.562176;0.749568;0.187392;-0.562176;0.749568;0.0;-0.562176;0.93696;0.0;-0.562176;1.124352;0.0;-0.562176;1.124352;0.0;-0.562176;107.52000000000001;-53.760000000000005;-89.60000000000001;107.52000000000001;-35.84;-89.60000000000001;107.52000000000001;-35.84;-71.68;107.52000000000001;-17.92;-71.68;107.52000000000001;-35.84;-71.68;125.44000000000001;-35.84;-71.68;107.52000000000001;-17.92;-71.68;107.52000000000001;0.0;-71.68;89.60000000000001;0.0;-71.68;107.52000000000001;0.0;-71.68;89.60000000000001;0.0;-53.760000000000005;89.60000000000001;0.0;-53.760000000000005;89.60000000000001;0.0;-53.760000000000005;89.60000000000001;0.0;-53.760000000000005;71.68;0.0;-53.760000000000005;71.68;0.0;-35.84;71.68;-17.92;-35.84;89.60000000000001;-17.92;-35.84;71.68;-17.92;-35.84;71.68;-17.92;-35.84;0.44544;-0.59392;0.0;0.44544;-0.59392;-0.29696;0.59392;-0.44544;-0.44544;0.59392;-0.44544;-0.44544;0.59392;-0.44544;-0.7424;0.7424;-0.44544;-0.7424;0.7424;-0.29696;-0.89088;0.7424;-0.29696;-0.89088;0.7424;-0.14848;-1.03936;0.7424;-0.14848;-1.03936;0.7424;0.0;-1.03936;0.7424;0.0;-1.03936;0.7424;0.14848;-1.03936;0.7424;0.14848;-1.03936;0.7424;0.14848;-1.03936;0.7424;0.14848;-1.03936;0.7424;0.29696;-1.03936;0.7424;0.29696;-1.03936;0.7424;0.29696;-0.89088;0.59392;0.44544;-0.89088
1727895289000;9;3.2;0;255;255;false;92;32.9255026;32.925502;32.925501600000004;32.92550120000001;32.92550080000001;32.92550080000001;32.92550080000001;32.92550060000001;32.925500400000004;32.925499800000004;-117.2350253;-117.2350249;-117.2350245;-117.2350235;-117.2350227;-117.2350223;-117.2350215;-117.2350205;-117.2350201;-117.2350191;0.714;0.714;0.686;0.769;0.825;0.631;0.658;0.769;0.714;0.908;0.93696;0.187392;-0.562176;0.93696;0.187392;-0.562176;0.93696;0.187392;-0.562176;0.93696;0.187392;-0.562176;0.93696;0.187392;-0.374784;0.93696;0.187392;-0.562176;0.749568;0.187392;-0.374784;0.749568;0.0;-0.374784;0.749568;0.187392;-0.374784;0.749568;0.187392;-0.374784;0.749568;0.187392;-0.374784;0.562176;0.187392;-0.374784;0.749568;0.187392;-0.374784;0.749568;0.187392;-0.374784;0.749568;0.187392;-0.374784;0.749568;0.187392;-0.374784;0.749568;0.187392;-0.374784;0.749568;0.187392;-0.374784;0.749568;0.187392;-0.374784;0.749568;0.187392;-0.374784;0.749568;0.0;-0.374784;0.749568;0.0;-0.374784;0.749568;0.187392;-0.374784;0.93696;0.187392;-0.374784;0.93696;0.187392;-0.374784;0.93696;0.187392;-0.374784;0.93696;0.187392;-0.374784;0.93696;0.187392;-0.374784;0.93696;0.187392;-0.374784;0.93696;0.187392;-0.374784;0.93696;0.187392;-0.374784;0.93696;0.0;-0.374784;1.311744;0.0;-0.374784;1.311744;0.0;-0.562176;0.93696;0.0;-0.562176;0.93696;0.0;-0.562176;0.93696;0.0;-0.562176;0.93696;0.0;-0.374784;0.749568;0.0;-0.374784;0.749568;0.0;-0.374784;0.749568;0.0;-0.562176;0.93696;0.0;-0.562176;0.93696;0.0;-0.562176;0.93696;-0.187392;-0.562176;0.93696;-0.187392;-0.562176;0.93696;-0.187392;-0.562176;0.93696;-0.187392;-0.562176;0.93696;-0.187392;-0.374784;0.93696;-0.187392;-0.374784;0.93696;-0.187392;-0.374784;0.93696;0.0;-0.374784;0.93696;0.0;-0.374784;0.93696;0.0;-0.374784;0.93696;0.0;-0.374784;0.749568;0.0;-0.374784;0.749568;0.0;-0.187392;0.749568;-0.187392;-0.374784;0.749568;0.0;-0.187392;0.749568;0.0;-0.187392;0.749568;0.0;-0.187392;0.749568;0.0;-0.187392;0.749568;0.0;-0.187392;0.93696;0.0;-0.187392;0.93696;0.0;-0.187392;0.93696;0.0;-0.374784;0.93696;0.0;-0.374784;0.93696;0.0;-0.187392;0.93696;0.0;-0.187392;0.93696;0.0;-0.374784;0.93696;0.0;-0.374784;0.93696;0.0;-0.374784;0.93696;0.0;-0.187392;0.93696;0.0;-0.187392;0.93696;0.0;-0.374784;0.93696;0.0;-0.374784;0.93696;-0.187392;-0.374784;0.93696;-0.187392;-0.374784;0.93696;-0.187392;-0.187392;0.93696;-0.187392;-0.187392;0.93696;-0.187392;-0.374784;89.60000000000001;0.0;-53.760000000000005;89.60000000000001;0.0;-53.760000000000005;89.60000000000001;0.0;-53.760000000000005;89.60000000000001;0.0;-53.760000000000005;53.760000000000005;0.0;-35.84;53.760000000000005;0.0;-17.92;53.760000000000005;-17.92;0.0;35.84;-35.84;0.0;35.84;-35.84;0.0;35.84;-35.84;-17.92;17.92;-35.84;0.0;53.760000000000005;-17.92;0.0;53.760000000000005;0.0;0.0;53.760000000000005;0.0;-17.92;71.68;0.0;-17.92;71.68;0.0;-17.92;71.68;17.92;-17.92;71.68;35.84;-17.92;71.68;35.84;-17.92;71.68;35.84;-17.92;0.59392;0.44544;-0.89088;0.59392;0.44544;-0.89088;0.59392;0.59392;-0.7424;0.59392;0.59392;-0.7424;0.59392;0.59392;-0.7424;0.59392;0.59392;-0.59392;0.44544;0.59392;-0.59392;0.44544;0.59392;-0.59392;0.44544;0.59392;-0.59392;0.59392;0.59392;-0.59392;0.44544;0.59392;-0.44544;0.59392;0.59392;-0.59392;0.59392;0.59392;-0.59392;0.44544;0.59392;-0.44544;0.59392;0.59392;-0.44544;0.44544;0.59392;-0.29696;0.44544;0.59392;-0.29696;0.44544;0.59392;-0.14848;0.44544;0.59392;-0.14848;0.44544;0.44544;0.0
1727895290000;9;3.2;0;255;255;false;92;32.9254999;32.925499099999996;32.925498299999994;32.925497899999996;32.9254975;32.925497299999996;32.9254967;32.9254967;32.925496499999994;32.9254967;-117.2350186;-117.235017;-117.235016;-117.2350138;-117.2350134;-117.235013;-117.23501239999999;-117.23501259999999;-117.23501279999999;-117.2350132;0.811;1.117;1.144;1.506;1.117;0.811;0.756;0.45;0.256;0.061;0.93696;-0.187392;-0.374784;0.93696;0.0;-0.374784;0.93696;0.0;-0.374784;0.93696;0.0;-0.374784;1.124352;0.0;-0.374784;1.124352;0.0;-0.562176;0.93696;0.0;-0.562176;0.93696;0.0;-0.562176;0.93696;0.187392;-0.562176;0.93696;0.187392;-0.562176;0.93696;0.187392;-0.562176;0.93696;0.187392;-0.562176;0.749568;0.374784;-0.562176;0.749568;0.374784;-0.749568;0.749568;0.374784;-0.749568;0.562176;0.374784;-0.749568;0.562176;0.374784;-0.749568;0.562176;0.374784;-0.749568;0.374784;0.374784;-0.749568;0.374784;0.374784;-0.749568;0.374784;0.374784;-0.749568;0.374784;0.374784;-0.749568;0.374784;0.374784;-0.749568;0.187392;0.374784;-0.749568;0.187392;0.374784;-0.749568;0.374784;0.374784;-0.749568;0.374784;0.374784;-0.749568;0.374784;0.374784;-0.749568;0.374784;0.562176;-0.749568;0.374784;0.562176;-0.749568;0.374784;0.562176;-0.749568;0.374784;0.562176;-0.749568;0.374784;0.562176;-0.749568;0.374784;0.562176;-0.93696;0.374784;0.562176;-0.93696;0.374784;0.562176;-0.93696;0.374784;0.562176;-0.93696;0.374784;0.562176;-0.93696;0.374784;0.562176;-0.93696;0.374784;0.562176;-0.93696;0.374784;0.562176;-0.93696;0.374784;0.562176;-0.93696;0.374784;0.562176;-0.93696;0.374784;0.562176;-0.93696;0.374784;0.562176;-0.93696;0.374784;0.562176;-0.93696;0.374784;0.562176;-0.93696;0.374784;0.562176;-0.93696;0.374784;0.562176;-0.93696;0.374784;0.562176;-0.93696;0.374784;0.562176;-0.93696;0.374784;0.562176;-0.93696;0.374784;0.562176;-0.93696;0.374784;0.562176;-0.93696;0.562176;0.562176;-0.749568;0.374784;0.562176;-0.749568;0.374784;0.562176;-0.749568;0.374784;0.374784;-0.749568;0.374784;0.374784;-0.749568;0.374784;0.374784;-0.93696;0.562176;0.374784;-0.93696;0.562176;0.374784;-0.749568;0.374784;0.562176;-0.749568;0.374784;0.562176;-0.749568;0.374784;0.374784;-0.749568;0.374784;0.374784;-0.749568;0.374784;0.374784;-0.749568;0.374784;0.374784;-0.749568;0.374784;0.374784;-0.749568;0.374784;0.374784;-0.749568;0.374784;0.374784;-0.749568;0.374784;0.374784;-0.749568;0.374784;0.374784;-0.749568;0.374784;0.374784;-0.749568;0.562176;0.374784;-0.749568;0.562176;0.374784;-0.749568;0.562176;0.374784;-0.749568;0.562176;0.374784;-0.93696;0.562176;0.374784;-0.749568;0.562176;0.374784;-0.749568;71.68;35.84;-17.92;71.68;53.760000000000005;-17.92;53.760000000000005;71.68;0.0;35.84;89.60000000000001;17.92;35.84;89.60000000000001;35.84;35.84;89.60000000000001;35.84;35.84;71.68;17.92;53.760000000000005;53.760000000000005;17.92;53.760000000000005;35.84;17.92;35.84;35.84;17.92;17.92;17.92;0.0;17.92;17.92;0.0;17.92;0.0;-17.92;0.0;-17.92;-35.84;0.0;-17.92;-35.84;-17.92;-17.92;-53.760000000000005;17.92;-17.92;-71.68;17.92;-35.84;-71.68;35.84;-35.84;-71.68;53.760000000000005;-53.760000000000005;-71.68;0.44544;0.44544;0.14848;0.44544;0.44544;0.14848;0.29696;0.44544;0.29696;0.29696;0.44544;0.44544;0.14848;0.29696;0.59392;0.14848;0.29696;0.7424;0.14848;0.29696;0.7424;0.0;0.14848;0.89088;0.0;0.14848;0.89088;0.0;0.14848;0.89088;0.0;0.14848;1.03936;-0.14848;0.0;0.89088;-0.14848;0.0;1.03936;-0.14848;0.0;1.03936;-0.14848;0.0;1.03936;0.0;0.0;0.89088;0.0;0.14848;0.89088;-0.14848;0.0;1.03936;0.0;0.14848;0.89088;0.0;0.0;0.89088
1727895291000;9;3.2;0;255;255;false;92;32.9254969;32.925497299999996;32.925497299999996;32.925497299999996;32.925497299999996;32.9254975;32.9254977;32.9254981;32.9254981;32.9254983;-117.2350138;-117.23501440000001;-117.23501480000002;-117.23501560000001;-117.23501560000001;-117.23501580000001;-117.23501620000002;-117.23501640000002;-117.23501660000002;-117.23501700000003;0.292;0.431;0.458;0.569;0.375;0.347;0.375;0.319;0.264;0.264;0.562176;0.374784;-0.562176;0.562176;0.187392;-0.562176;0.374784;0.187392;-0.562176;0.374784;0.0;-0.374784;0.562176;0.0;-0.374784;0.749568;0.187392;-0.374784;0.93696;0.187392;-0.562176;0.93696;0.374784;-0.562176;0.93696;0.562176;-0.562176;0.749568;0.749568;-0.562176;0.749568;0.562176;-0.562176;0.93696;0.374784;-0.749568;0.93696;0.374784;-0.749568;0.93696;0.187392;-0.562176;0.93696;0.0;-0.562176;0.93696;0.0;-0.374784;0.749568;0.0;-0.374784;0.749568;-0.187392;-0.374784;0.562176;-0.187392;-0.374784;0.749568;0.0;-0.562176;0.749568;0.0;-0.562176;0.749568;0.0;-0.562176;0.749568;0.0;-0.562176;0.749568;0.0;-0.562176;0.93696;-0.187392;-0.374784;0.93696;-0.187392;-0.374784;1.124352;-0.187392;-0.374784;0.93696;-0.187392;-0.374784;0.93696;-0.187392;-0.374784;0.93696;-0.187392;-0.374784;0.93696;-0.187392;-0.374784;0.93696;-0.187392;-0.374784;0.93696;0.0;-0.374784;0.93696;0.0;-0.374784;0.93696;0.0;-0.374784;0.93696;-0.187392;-0.374784;0.93696;-0.187392;-0.374784;0.93696;-0.187392;-0.374784;0.93696;-0.187392;-0.374784;0.749568;-0.187392;-0.374784;0.93696;0.0;-0.374784;0.93696;-0.187392;-0.374784;0.93696;-0.187392;-0.187392;0.93696;0.0;-0.187392;0.93696;0.0;-0.187392;0.93696;0.0;-0.374784;0.93696;0.0;-0.374784;0.749568;0.0;-0.374784;0.749568;0.0;-0.374784;0.749568;0.0;-0.374784;0.749568;0.0;-0.374784;0.93696;0.0;-0.374784;0.93696;0.0;-0.374784;0.93696;0.0;-0.374784;0.93696;0.0;-0.374784;0.93696;0.0;-0.374784;0.749568;0.0;-0.374784;0.749568;0.0;-0.374784;0.749568;0.0;-0.374784;0.749568;0.0;-0.374784;0.93696;0.0;-0.374784;0.93696;0.0;-0.374784;0.93696;0.0;-0.374784;0.93696;0.0;-0.374784;0.93696;-0.187392;-0.187392;0.93696;-0.187392;-0.187392;0.93696;-0.187392;-0.187392;0.93696;-0.187392;-0.187392;0.93696;0.0;-0.187392;0.93696;0.0;-0.187392;0.93696;0.0;-0.187392;0.93696;0.0;-0.187392;0.93696;0.0;-0.187392;0.93696;0.0;-0.187392;0.93696;0.0;-0.187392;0.93696;-0.187392;-0.187392;0.93696;-0.187392;-0.187392;0.93696;-0.187392;-0.187392;0.93696;-0.187392;-0.187392;0.93696;-0.187392;-0.187392;89.60000000000001;-17.92;-71.68;125.44000000000001;-53.760000000000005;-71.68;35.84;-35.84;-107.52000000000001;17.92;-53.760000000000005;-53.760000000000005;71.68;-35.84;-53.760000000000005;53.760000000000005;-53.760000000000005;-53.760000000000005;71.68;-53.760000000000005;-35.84;71.68;-17.92;-35.84;53.760000000000005;-17.92;-35.84;71.68;-17.92;-17.92;53.760000000000005;-17.92;-17.92;71.68;-17.92;-17.92;35.84;0.0;-17.92;35.84;0.0;-17.92;0.0;17.92;-17.92;17.92;-17.92;0.0;17.92;-17.92;-17.92;53.760000000000005;-17.92;-35.84;71.68;0.0;-53.760000000000005;89.60000000000001;0.0;-53.760000000000005;0.0;0.0;0.89088;0.0;0.0;0.89088;0.14848;0.0;0.89088;0.14848;0.0;0.7424;0.14848;0.0;0.7424;0.14848;-0.14848;0.59392;0.29696;-0.14848;0.59392;0.29696;-0.14848;0.59392;0.29696;-0.14848;0.44544;0.29696;-0.14848;0.44544;0.44544;-0.14848;0.44544;0.29696;-0.14848;0.44544;0.29696;-0.29696;0.44544;0.44544;-0.29696;0.29696;0.44544;-0.29696;0.29696;0.44544;-0.29696;0.29696;0.44544;-0.29696;0.29696;0.44544;-0.29696;0.29696;0.44544;-0.29696;0.29696;0.44544;-0.29696;0.14848
1727895292000;9;3.2;0;255;255;false;92;32.9254988;32.9254994;32.9255004;32.925500799999995;32.9255016;32.925501999999994;32.92550239999999;32.92550239999999;32.92550239999999;32.92550239999999;-117.2350176;-117.2350184;-117.2350188;-117.23501920000001;-117.23501960000002;-117.23502040000001;-117.23502060000001;-117.23502100000002;-117.23502180000001;-117.23502240000002;0.381;0.519;0.603;0.631;0.714;0.658;0.631;0.492;0.547;0.603;0.93696;-0.187392;-0.187392;0.93696;-0.187392;-0.187392;0.93696;-0.187392;-0.187392;0.93696;-0.187392;-0.187392;0.93696;-0.187392;-0.187392;0.93696;0.0;-0.187392;0.93696;0.0;-0.187392;0.93696;0.0;-0.187392;0.93696;0.0;-0.187392;0.93696;0.0;-0.374784;0.93696;0.0;-0.374784;0.93696;0.0;-0.374784;0.93696;0.0;-0.374784;0.93696;0.0;-0.374784;0.93696;0.0;-0.374784;0.93696;0.0;-0.374784;0.93696;0.0;-0.562176;0.93696;0.0;-0.562176;0.93696;0.0;-0.562176;0.93696;0.0;-0.562176;0.749568;0.0;-0.562176;0.749568;-0.187392;-0.562176;0.749568;-0.187392;-0.562176;0.749568;-0.187392;-0.374784;0.749568;-0.187392;-0.374784;0.749568;0.0;-0.562176;0.749568;0.0;-0.562176;0.749568;0.0;-0.374784;0.749568;0.0;-0.562176;0.749568;0.0;-0.562176;0.749568;0.0;-0.562176;0.93696;0.0;-0.374784;0.93696;0.0;-0.374784;0.93696;0.0;-0.374784;0.93696;0.0;-0.562176;0.93696;0.0;-0.562176;0.93696;0.187392;-0.562176;0.93696;0.187392;-0.562176;0.93696;0.187392;-0.562176;0.93696;0.187392;-0.562176;0.93696;0.187392;-0.374784;0.93696;0.187392;-0.374784;0.93696;0.187392;-0.374784;0.93696;0.187392;-0.374784;0.93696;0.187392;-0.374784;0.93696;0.187392;-0.187392;0.93696;0.0;-0.187392;0.93696;0.0;-0.187392;0.93696;0.0;-0.187392;0.93696;0.0;-0.187392;0.93696;0.0;-0.187392;0.93696;0.0;0.0;0.93696;0.0;-0.187392;0.93696;0.0;-0.187392;0.93696;0.0;-0.187392;0.93696;0.0;-0.187392;0.93696;0.0;-0.187392;0.93696;0.0;-0.187392;0.93696;0.0;-0.187392;0.93696;0.0;-0.187392;0.93696;0.0;-0.187392;0.93696;0.0;-0.187392;0.93696;0.0;-0.187392;0.93696;0.0;-0.187392;0.93696;0.0;-0.187392;1.124352;0.0;-0.187392;1.124352;0.0;-0.187392;1.124352;0.0;-0.187392;1.124352;0.0;-0.187392;1.124352;0.0;-0.187392;1.124352;0.0;-0.187392;0.93696;0.0;-0.187392;1.124352;0.0;-0.187392;1.124352;0.0;-0.187392;0.93696;0.0;-0.187392;0.749568;0.0;0.0;0.749568;-0.187392;0.0;0.749568;-0.187392;0.0;0.93696;-0.187392;0.0;0.93696;-0.187392;0.0;89.60000000000001;17.92;-35.84;89.60000000000001;0.0;-35.84;71.68;0.0;0.0;17.92;0.0;0.0;17.92;-17.92;17.92;0.0;-17.92;17.92;35.84;-35.84;0.0;35.84;-35.84;0.0;35.84;-35.84;0.0;35.84;-17.92;-17.92;0.0;-17.92;-17.92;-35.84;-17.92;0.0;-53.760000000000005;-17.92;0.0;-71.68;0.0;17.92;-53.760000000000005;0.0;17.92;-53.760000000000005;0.0;17.92;-89.60000000000001;-35.84;17.92;-71.68;-17.92;35.84;-89.60000000000001;-17.92;35.84;-89.60000000000001;0.0;35.84;0.44544;-0.29696;0.14848;0.44544;-0.29696;0.14848;0.44544;-0.29696;0.14848;0.44544;-0.44544;0.14848;0.44544;-0.44544;0.14848;0.44544;-0.44544;0.14848;0.44544;-0.44544;0.14848;0.44544;-0.44544;0.14848;0.44544;-0.44544;0.0;0.44544;-0.44544;0.0;0.59392;-0.44544;-0.14848;0.59392;-0.44544;-0.14848;0.59392;-0.44544;-0.14848;0.59392;-0.44544;-0.14848;0.59392;-0.29696;0.0;0.59392;-0.29696;0.0;0.44544;-0.29696;0.0;0.44544;-0.29696;0.0;0.44544;-0.29696;0.0;0.44544;-0.29696;0.0
1727895293000;9;3.2;0;255;255;false;92;32.9255022;32.9255022;32.9255024;32.9255028;32.925503199999994;32.925504;32.925504399999994;32.925505199999996;32.925505599999994;32.925505799999996;-117.2350228;-117.2350238;-117.2350244;-117.2350246;-117.23502520000001;-117.23502520000001;-117.23502500000001;-117.2350248;-117.2350248;-117.23502520000001;0.508;0.731;0.619;0.536;0.647;0.647;0.619;0.647;0.592;0.397;1.124352;-0.187392;0.0;1.124352;-0.187392;0.0;1.124352;-0.187392;0.0;1.124352;-0.187392;0.0;1.124352;-0.187392;0.0;1.124352;-0.187392;-0.187392;1.124352;-0.187392;-0.187392;1.124352;-0.187392;-0.187392;0.93696;-0.187392;-0.187392;0.93696;-0.187392;-0.187392;0.93696;-0.187392;-0.187392;0.93696;-0.187392;-0.187392;0.93696;-0.187392;-0.187392;0.749568;-0.187392;-0.187392;0.749568;-0.187392;-0.374784;0.749568;-0.187392;-0.187392;0.749568;-0.187392;-0.187392;0.749568;-0.187392;-0.187392;0.562176;-0.187392;-0.187392;0.562176;-0.187392;-0.187392;0.562176;-0.187392;-0.374784;0.562176;-0.187392;-0.374784;0.562176;-0.187392;-0.374784;0.562176;-0.187392;-0.374784;0.562176;-0.187392;-0.374784;0.749568;-0.187392;-0.374784;0.749568;-0.187392;-0.374784;0.749568;-0.187392;-0.374784;0.749568;-0.187392;-0.374784;0.749568;-0.187392;-0.374784;0.749568;-0.187392;-0.374784;0.749568;-0.374784;-0.374784;0.749568;-0.374784;-0.374784;0.93696;-0.374784;-0.374784;0.93696;-0.374784;-0.374784;1.124352;-0.187392;-0.374784;1.124352;-0.187392;-0.374784;1.124352;0.0;-0.374784;1.124352;0.0;-0.374784;1.124352;0.0;-0.374784;1.124352;0.0;-0.562176;1.124352;0.0;-0.562176;1.124352;0.187392;-0.562176;0.93696;0.0;-0.562176;0.749568;-0.374784;-0.749568;0.749568;-0.562176;-0.749568;0.749568;-0.374784;-0.374784;0.749568;0.0;-0.187392;0.749568;0.0;-0.187392;0.749568;0.187392;-0.187392;0.749568;0.187392;-0.374784;0.749568;0.187392;-0.562176;0.93696;0.187392;-0.562176;0.93696;0.187392;-0.562176;0.93696;0.187392;-0.374784;0.93696;0.187392;-0.374784;1.124352;0.187392;-0.187392;1.124352;0.0;-0.187392;1.124352;0.187392;-0.187392;1.124352;0.187392;-0.187392;0.93696;0.187392;-0.187392;0.749568;0.187392;-0.374784;0.749568;0.187392;-0.374784;0.749568;0.187392;-0.187392;0.93696;0.187392;0.0;0.93696;0.187392;0.0;0.93696;0.374784;0.0;0.93696;0.374784;-0.187392;0.93696;0.374784;-0.187392;0.93696;0.374784;-0.374784;0.749568;0.374784;-0.374784;0.749568;0.374784;-0.374784;0.749568;0.187392;-0.374784;0.749568;0.187392;-0.374784;0.93696;0.187392;-0.374784;0.749568;0.187392;-0.374784;0.749568;0.187392;-0.562176;0.749568;0.187392;-0.562176;0.749568;0.187392;-0.562176;0.749568;0.187392;-0.562176;-89.60000000000001;17.92;35.84;-89.60000000000001;17.92;17.92;-71.68;35.84;0.0;0.0;17.92;-17.92;17.92;17.92;0.0;71.68;35.84;0.0;71.68;0.0;-17.92;71.68;0.0;-17.92;71.68;0.0;-35.84;89.60000000000001;-17.92;-17.92;107.52000000000001;0.0;0.0;179.20000000000002;-35.84;17.92;89.60000000000001;0.0;-17.92;71.68;-35.84;-17.92;71.68;-17.92;-17.92;53.760000000000005;-17.92;0.0;0.0;0.0;0.0;-17.92;0.0;0.0;0.0;17.92;17.92;17.92;0.0;17.92;0.44544;-0.29696;0.14848;0.44544;-0.29696;0.14848;0.44544;-0.14848;0.29696;0.44544;-0.14848;0.29696;0.44544;-0.14848;0.29696;0.44544;-0.14848;0.44544;0.44544;-0.29696;0.29696;0.44544;-0.29696;0.29696;0.44544;-0.29696;0.29696;0.44544;-0.29696;0.29696;0.44544;-0.29696;0.29696;0.44544;-0.44544;0.14848;0.44544;-0.44544;0.14848;0.44544;-0.59392;-0.14848;0.44544;-0.44544;-0.14848;0.44544;-0.59392;-0.29696;0.59392;-0.59392;-0.29696;0.44544;-0.59392;-0.29696;0.59392;-0.59392;-0.29696;0.44544;-0.59392;-0.29696
1727895294000;9;3.2;0;255;255;false;92;32.9255062;32.925506;32.925505799999996;32.925505599999994;32.925504999999994;32.925504999999994;32.925505199999996;32.925505599999994;32.925505599999994;32.92550539999999;-117.2350254;-117.2350254;-117.2350256;-117.2350268;-117.2350272;-117.23502780000001;-117.23502840000002;-117.23502820000002;-117.23502820000002;-117.23502820000002;0.381;0.158;0.269;0.658;0.603;0.686;0.631;0.325;0.269;0.214;0.93696;0.374784;-0.562176;0.93696;0.374784;-0.374784;0.93696;0.374784;-0.374784;0.93696;0.374784;-0.374784;1.124352;0.187392;-0.374784;0.93696;0.187392;-0.374784;0.93696;0.187392;-0.374784;1.124352;0.187392;-0.374784;0.93696;0.187392;-0.374784;0.93696;0.374784;-0.187392;0.93696;0.374784;-0.187392;0.93696;0.187392;-0.187392;0.93696;0.187392;-0.187392;0.93696;0.187392;-0.374784;0.93696;0.187392;-0.187392;0.93696;0.187392;-0.187392;0.93696;0.374784;-0.187392;0.93696;0.374784;-0.187392;0.93696;0.187392;-0.187392;0.93696;0.187392;-0.187392;0.93696;0.187392;-0.187392;0.93696;0.187392;-0.187392;0.93696;0.187392;-0.187392;0.93696;0.187392;-0.187392;0.93696;0.0;0.0;0.93696;0.0;0.0;0.93696;0.0;0.0;0.93696;0.0;0.0;0.93696;-0.187392;0.0;0.93696;-0.187392;0.0;0.93696;-0.187392;0.0;0.93696;-0.187392;0.0;0.93696;-0.187392;0.0;0.93696;-0.187392;0.0;0.93696;-0.187392;0.0;0.93696;-0.187392;0.0;0.93696;-0.374784;0.0;0.93696;-0.374784;0.0;0.93696;-0.374784;0.0;0.93696;-0.374784;0.0;0.93696;-0.374784;0.0;0.93696;-0.374784;0.0;0.749568;-0.562176;0.0;0.749568;-0.562176;0.0;0.749568;-0.562176;0.0;0.749568;-0.562176;0.0;0.749568;-0.562176;0.0;0.749568;-0.562176;0.0;0.749568;-0.562176;0.0;0.749568;-0.562176;-0.187392;0.749568;-0.562176;0.0;0.749568;-0.562176;0.0;0.749568;-0.749568;-0.187392;0.749568;-0.749568;-0.187392;0.749568;-0.749568;-0.187392;0.749568;-0.749568;-0.187392;0.749568;-0.749568;-0.187392;0.749568;-0.749568;-0.187392;0.749568;-0.749568;-0.187392;0.749568;-0.749568;-0.187392;0.749568;-0.749568;-0.187392;0.749568;-0.749568;-0.187392;0.749568;-0.749568;-0.187392;0.749568;-0.749568;-0.187392;0.749568;-0.749568;-0.187392;0.749568;-0.749568;-0.187392;0.749568;-0.749568;-0.187392;0.749568;-0.749568;-0.187392;0.749568;-0.749568;0.0;0.749568;-0.749568;0.0;0.749568;-0.749568;0.0;0.749568;-0.749568;0.0;0.749568;-0.562176;0.0;0.749568;-0.562176;0.0;0.749568;-0.562176;0.0;0.749568;-0.562176;0.0;0.749568;-0.562176;0.0;0.749568;-0.374784;0.0;0.749568;-0.374784;0.0;0.749568;-0.374784;0.0;-107.52000000000001;0.0;35.84;-125.44000000000001;17.92;35.84;-143.36;35.84;35.84;-125.44000000000001;17.92;17.92;-161.28000000000003;17.92;17.92;-197.12;17.92;35.84;-232.96000000000004;35.84;53.760000000000005;-250.88000000000002;35.84;53.760000000000005;-268.8;17.92;53.760000000000005;-286.72;17.92;53.760000000000005;-286.72;17.92;35.84;-232.96000000000004;17.92;17.92;-179.20000000000002;0.0;17.92;-107.52000000000001;0.0;0.0;-35.84;0.0;0.0;35.84;0.0;-17.92;89.60000000000001;-17.92;-17.92;161.28000000000003;-35.84;-17.92;215.04000000000002;-53.760000000000005;-35.84;250.88000000000002;-53.760000000000005;-35.84;0.44544;-0.59392;-0.14848;0.44544;-0.59392;-0.14848;0.44544;-0.44544;0.0;0.44544;-0.44544;0.29696;0.29696;-0.44544;0.29696;0.29696;-0.29696;0.44544;0.29696;-0.14848;0.44544;0.29696;0.0;0.59392;0.29696;0.14848;0.59392;0.29696;0.29696;0.44544;0.14848;0.44544;0.44544;0.29696;0.59392;0.14848;0.29696;0.7424;0.0;0.29696;0.89088;-0.29696;0.29696;0.89088;-0.29696;0.14848;0.89088;-0.29696;0.14848;0.89088;-0.29696;0.14848;0.89088;-0.29696;0.14848;0.7424;-0.14848;0.14848;0.59392;0.14848
