time_trame,label,acc_x_1,acc_y_1,acc_z_1,acc_x_2,acc_y_2,acc_z_2,acc_x_3,acc_y_3,acc_z_3,acc_x_4,acc_y_4,acc_z_4,acc_x_5,acc_y_5,acc_z_5,acc_x_6,acc_y_6,acc_z_6,acc_x_7,acc_y_7,acc_z_7,acc_x_8,acc_y_8,acc_z_8,acc_x_9,acc_y_9,acc_z_9,acc_x_10,acc_y_10,acc_z_10,acc_x_11,acc_y_11,acc_z_11,acc_x_12,acc_y_12,acc_z_12,acc_x_13,acc_y_13,acc_z_13,acc_x_14,acc_y_14,acc_z_14,acc_x_15,acc_y_15,acc_z_15,acc_x_16,acc_y_16,acc_z_16,acc_x_17,acc_y_17,acc_z_17,acc_x_18,acc_y_18,acc_z_18,acc_x_19,acc_y_19,acc_z_19,acc_x_20,acc_y_20,acc_z_20,acc_x_21,acc_y_21,acc_z_21,acc_x_22,acc_y_22,acc_z_22,acc_x_23,acc_y_23,acc_z_23,acc_x_24,acc_y_24,acc_z_24,acc_x_25,acc_y_25,acc_z_25,acc_x_26,acc_y_26,acc_z_26,acc_x_27,acc_y_27,acc_z_27,acc_x_28,acc_y_28,acc_z_28,acc_x_29,acc_y_29,acc_z_29,acc_x_30,acc_y_30,acc_z_30,acc_x_31,acc_y_31,acc_z_31,acc_x_32,acc_y_32,acc_z_32,acc_x_33,acc_y_33,acc_z_33,acc_x_34,acc_y_34,acc_z_34,acc_x_35,acc_y_35,acc_z_35,acc_x_36,acc_y_36,acc_z_36,acc_x_37,acc_y_37,acc_z_37,acc_x_38,acc_y_38,acc_z_38,acc_x_39,acc_y_39,acc_z_39,acc_x_40,acc_y_40,acc_z_40,acc_x_41,acc_y_41,acc_z_41,acc_x_42,acc_y_42,acc_z_42,acc_x_43,acc_y_43,acc_z_43,acc_x_44,acc_y_44,acc_z_44,acc_x_45,acc_y_45,acc_z_45,acc_x_46,acc_y_46,acc_z_46,acc_x_47,acc_y_47,acc_z_47,acc_x_48,acc_y_48,acc_z_48,acc_x_49,acc_y_49,acc_z_49,acc_x_50,acc_y_50,acc_z_50,acc_x_51,acc_y_51,acc_z_51,acc_x_52,acc_y_52,acc_z_52,acc_x_53,acc_y_53,acc_z_53,acc_x_54,acc_y_54,acc_z_54,acc_x_55,acc_y_55,acc_z_55,acc_x_56,acc_y_56,acc_z_56,acc_x_57,acc_y_57,acc_z_57,acc_x_58,acc_y_58,acc_z_58,acc_x_59,acc_y_59,acc_z_59,acc_x_60,acc_y_60,acc_z_60,acc_x_61,acc_y_61,acc_z_61,acc_x_62,acc_y_62,acc_z_62,acc_x_63,acc_y_63,acc_z_63,acc_x_64,acc_y_64,acc_z_64,acc_x_65,acc_y_65,acc_z_65,acc_x_66,acc_y_66,acc_z_66,acc_x_67,acc_y_67,acc_z_67,acc_x_68,acc_y_68,acc_z_68,acc_x_69,acc_y_69,acc_z_69,acc_x_70,acc_y_70,acc_z_70,acc_x_71,acc_y_71,acc_z_71,acc_x_72,acc_y_72,acc_z_72,acc_x_73,acc_y_73,acc_z_73,acc_x_74,acc_y_74,acc_z_74,acc_x_75,acc_y_75,acc_z_75,acc_x_76,acc_y_76,acc_z_76,acc_x_77,acc_y_77,acc_z_77,acc_x_78,acc_y_78,acc_z_78,acc_x_79,acc_y_79,acc_z_79,acc_x_80,acc_y_80,acc_z_80,gyro_x_1,gyro_y_1,gyro_z_1,gyro_x_2,gyro_y_2,gyro_z_2,gyro_x_3,gyro_y_3,gyro_z_3,gyro_x_4,gyro_y_4,gyro_z_4,gyro_x_5,gyro_y_5,gyro_z_5,gyro_x_6,gyro_y_6,gyro_z_6,gyro_x_7,gyro_y_7,gyro_z_7,gyro_x_8,gyro_y_8,gyro_z_8,gyro_x_9,gyro_y_9,gyro_z_9,gyro_x_10,gyro_y_10,gyro_z_10,gyro_x_11,gyro_y_11,gyro_z_11,gyro_x_12,gyro_y_12,gyro_z_12,gyro_x_13,gyro_y_13,gyro_z_13,gyro_x_14,gyro_y_14,gyro_z_14,gyro_x_15,gyro_y_15,gyro_z_15,gyro_x_16,gyro_y_16,gyro_z_16,gyro_x_17,gyro_y_17,gyro_z_17,gyro_x_18,gyro_y_18,gyro_z_18,gyro_x_19,gyro_y_19,gyro_z_19,gyro_x_20,gyro_y_20,gyro_z_20
1728658339000,,0.93696,0,-0.374784,0.93696,-0.187392,-0.562176,0.93696,-0.187392,-0.374784,0.93696,-0.187392,-0.374784,0.93696,0,-0.562176,0.93696,0,-0.562176,0.93696,0,-0.374784,0.93696,0,-0.374784,0.93696,0,-0.374784,0.749568,0,-0.562176,0.93696,0,-0.374784,0.93696,0,-0.562176,0.93696,0,-0.374784,0.93696,0,-0.374784,0.93696,0,-0.374784,0.93696,0,-0.374784,0.93696,0,-0.562176,0.93696,0,-0.562176,0.93696,0,-0.374784,0.93696,0,-0.374784,0.93696,0,-0.374784,0.93696,0,-0.562176,0.93696,0,-0.374784,0.93696,0,-0.562176,0.93696,0,-0.562176,0.93696,0,-0.562176,0.93696,0,-0.562176,0.93696,0,-0.562176,0.93696,0,-0.374784,0.93696,0,-0.374784,0.93696,0,-0.562176,0.93696,0,-0.562176,0.93696,0,-0.562176,0.93696,0,-0.562176,0.93696,0,-0.562176,0.93696,0,-0.562176,0.93696,0,-0.374784,0.93696,0,-0.374784,0.93696,0,-0.374784,0.93696,0,-0.374784,0.93696,0,-0.374784,0.93696,0,-0.562176,0.93696,0,-0.562176,0.93696,0,-0.562176,0.93696,0,-0.562176,0.93696,0,-0.374784,0.93696,0,-0.374784,0.93696,0,-0.562176,0.93696,0,-0.562176,0.93696,0,-0.562176,0.93696,0,-0.562176,0.93696,0,-0.562176,0.93696,0,-0.562176,0.93696,0,-0.562176,0.93696,0,-0.562176,0.93696,0,-0.562176,0.93696,0,-0.562176,0.93696,0,-0.562176,0.93696,0,-0.562176,0.93696,0,-0.562176,0.93696,0,-0.562176,0.93696,0,-0.374784,0.749568,0,-0.374784,0.93696,0,-0.374784,0.93696,0,-0.562176,0.93696,0,-0.562176,0.93696,0,-0.562176,0.93696,0,-0.562176,0.93696,0,-0.374784,0.93696,0,-0.374784,0.93696,0,-0.562176,0.93696,-0.187392,-0.562176,0.93696,-0.187392,-0.562176,0.749568,-0.187392,-0.562176,0.749568,-0.187392,-0.562176,0.749568,-0.187392,-0.562176,0.749568,0,-0.562176,0.562176,0,-0.562176,0.93696,0,-0.562176,1.124352,-0.187392,-0.562176,-17.92,17.92,0,0,17.92,0,0,17.92,0,0,17.92,0,0,0,0,0,0,0,0,0,0,0,0,0,0,0,0,0,0,0,0,0,0,-17.92,0,0,0,0,0,0,0,0,0,0,0,0,17.92,0,-35.84,0,0,-17.92,17.92,0,-17.92,17.92,-17.92,0,0,0
1728658340000,,0.93696,-0.187392,-0.562176,0.93696,-0.187392,-0.562176,0.93696,0,-0.562176,0.749568,0,-0.562176,0.749568,-0.187392,-0.562176,0.93696,0,-0.562176,0.93696,-0.187392,-0.562176,0.93696,0,-0.562176,0.93696,0,-0.562176,0.93696,0,-0.562176,0.749568,-0.187392,-0.562176,0.749568,0,-0.562176,0.749568,0,-0.562176,0.93696,0,-0.562176,0.93696,0,-0.562176,0.93696,0,-0.562176,0.93696,0,-0.562176,0.93696,0,-0.562176,0.93696,0,-0.562176,0.93696,0,-0.562176,0.93696,0,-0.562176,0.93696,0,-0.562176,0.93696,-0.187392,-0.562176,0.93696,-0.187392,-0.562176,0.93696,-0.187392,-0.562176,0.93696,-0.187392,-0.562176,0.749568,-0.187392,-0.562176,0.749568,0,-0.562176,0.749568,0,-0.562176,0.93696,0,-0.562176,0.93696,0,-0.562176,0.93696,0,-0.562176,0.93696,0,-0.562176,0.93696,0,-0.562176,0.93696,0,-0.562176,0.93696,0,-0.562176,0.93696,0,-0.562176,0.93696,-0.187392,-0.562176,0.93696,0,-0.562176,0.93696,0,-0.562176,0.93696,0,-0.374784,0.93696,0,-0.562176,0.93696,0,-0.562176,0.93696,0,-0.562176,0.93696,0,-0.562176,0.93696,-0.187392,-0.562176,0.93696,0,-0.562176,0.93696,0,-0.562176,0.93696,0,-0.562176,0.93696,0,-0.374784,0.93696,0,-0.562176,0.93696,0,-0.562176,0.93696,0,-0.562176,0.93696,0,-0.562176,0.93696,0,-0.562176,0.93696,0,-0.562176,0.93696,0,-0.562176,0.93696,0,-0.374784,0.93696,0,-0.562176,0.93696,0,-0.562176,0.93696,0,-0.374784,0.93696,0,-0.374784,0.93696,0,-0.374784,0.93696,0,-0.562176,0.93696,0,-0.562176,0.93696,0,-0.374784,0.93696,0,-0.374784,0.93696,0,-0.374784,0.93696,0,-0.374784,0.93696,0,-0.562176,0.93696,0,-0.562176,0.93696,0,-0.374784,0.93696,0,-0.374784,0.93696,0,-0.374784,0.93696,0,-0.374784,0.93696,0,-0.374784,0.93696,0,-0.374784,0.93696,0,-0.374784,0.93696,0,-0.374784,0.93696,0,-0.374784,0,17.92,0,0,0,0,17.92,0,0,0,0,0,0,0,0,0,0,0,0,0,0,0,0,0,0,0,0,0,0,0,0,0,0,0,0,0,0,0,0,0,0,0,0,0,0,0,0,0,0,0,0,0,0,0,0,0,0,0,0,0
1728658341000,,0.93696,0,-0.374784,0.93696,0,-0.374784,0.93696,0,-0.374784,0.93696,0,-0.374784,0.93696,0,-0.374784,0.93696,0,-0.374784,0.93696,0,-0.374784,0.93696,0,-0.374784,0.93696,0,-0.374784,0.93696,0,-0.374784,0.93696,0,-0.374784,0.93696,0,-0.374784,0.93696,0,-0.374784,0.93696,0,-0.562176,0.93696,0,-0.374784,0.93696,-0.187392,-0.374784,0.93696,0,-0.374784,0.93696,0,-0.374784,0.93696,0,-0.374784,0.93696,0,-0.374784,0.93696,0,-0.374784,0.93696,0,-0.374784,0.93696,0,-0.374784,0.93696,0,-0.374784,0.93696,0,-0.374784,0.93696,0,-0.374784,0.93696,0,-0.374784,0.93696,0,-0.374784,0.93696,0,-0.374784,0.93696,0,-0.374784,0.93696,0,-0.374784,0.93696,0,-0.374784,0.93696,0,-0.374784,0.93696,0,-0.374784,0.93696,0,-0.374784,0.93696,0,-0.374784,0.93696,0,-0.374784,0.93696,0,-0.374784,0.93696,0,-0.374784,0.93696,0,-0.374784,0.93696,0,-0.374784,0.93696,0,-0.374784,0.93696,0,-0.374784,0.93696,0,-0.374784,0.93696,0,-0.374784,0.93696,0,-0.374784,0.93696,0,-0.374784,0.93696,0,-0.374784,0.93696,0,-0.374784,0.93696,0,-0.374784,0.93696,0,-0.374784,0.93696,0,-0.374784,0.93696,0,-0.374784,0.93696,0,-0.374784,0.93696,0,-0.562176,0.93696,0,-0.562176,0.93696,0,-0.562176,0.93696,0,-0.374784,0.93696,0,-0.562176,0.93696,0,-0.562176,0.93696,0,-0.562176,0.93696,0,-0.562176,0.93696,0,-0.562176,0.93696,0,-0.562176,0.93696,0,-0.374784,0.93696,0,-0.374784,0.93696,0,-0.562176,0.93696,0,-0.562176,0.93696,0,-0.562176,0.93696,0,-0.562176,0.93696,-0.187392,-0.562176,0.93696,-0.187392,-0.562176,0.93696,0,-0.562176,0.93696,0,-0.562176,0.93696,0,-0.562176,0.93696,0,-0.562176,0.93696,0,-0.562176,0.93696,0,-0.562176,0.93696,0,-0.562176,0.93696,0,-0.562176,0,0,0,17.92,0,0,17.92,0,0,0,0,0,17.92,0,0,0,0,0,0,0,0,0,0,0,0,0,0,0,0,0,0,0,0,0,0,0,0,0,0,0,0,0,0,0,0,0,0,0,0,0,0,17.92,0,0,17.92,0,0,17.92,0,0
1728658342000,,0.93696,0,-0.562176,0.93696,0,-0.374784,0.93696,0,-0.374784,0.93696,0,-0.562176,0.93696,0,-0.562176,0.93696,0,-0.374784,0.93696,0,-0.562176,0.93696,0,-0.562176,0.93696,0,-0.374784,0.93696,0,-0.374784,0.93696,0,-0.374784,0.93696,0,-0.374784,0.93696,0,-0.374784,0.93696,0,-0.374784,0.93696,0,-0.374784,0.749568,0,-0.374784,0.93696,0,-0.374784,0.93696,0,-0.374784,0.93696,0,-0.374784,0.93696,0,-0.374784,0.93696,0,-0.374784,0.93696,0,-0.374784,0.93696,0,-0.374784,0.93696,0,-0.374784,0.93696,0,-0.374784,0.93696,0,-0.374784,0.93696,0,-0.374784,0.93696,0,-0.374784,0.93696,0,-0.374784,0.93696,0,-0.374784,0.93696,0,-0.374784,0.93696,0,-0.374784,0.93696,0,-0.374784,0.93696,0,-0.374784,0.93696,0,-0.374784,0.93696,0,-0.374784,0.93696,0,-0.374784,0.93696,0,-0.374784,0.93696,0,-0.374784,0.93696,0,-0.374784,0.93696,0,-0.374784,0.93696,0,-0.374784,0.93696,0,-0.374784,0.93696,0,-0.374784,0.93696,0,-0.374784,0.93696,0,-0.374784,0.93696,0,-0.374784,0.93696,0,-0.374784,0.93696,0,-0.374784,0.93696,0,-0.374784,0.93696,0,-0.374784,0.93696,0,-0.374784,0.93696,0,-0.374784,0.93696,0,-0.374784,0.93696,0,-0.374784,0.93696,0,-0.374784,0.93696,0,-0.374784,0.93696,0,-0.374784,0.93696,0,-0.374784,0.93696,0,-0.374784,0.93696,0,-0.374784,0.93696,0,-0.374784,0.93696,0,-0.374784,0.93696,0,-0.374784,0.93696,0,-0.374784,0.93696,0,-0.374784,0.93696,0,-0.374784,0.93696,0,-0.374784,0.93696,0,-0.374784,0.93696,0,-0.374784,0.93696,0,-0.374784,0.93696,0,-0.374784,0.93696,0,-0.374784,0.93696,0,-0.374784,0.93696,0,-0.374784,0.93696,0,-0.374784,0.93696,0,-0.374784,0.93696,0,-0.374784,0.93696,0,-0.374784,0.93696,0,-0.374784,17.92,0,0,0,0,0,0,0,0,-17.92,0,0,-17.92,0,0,-17.92,0,0,0,0,0,-17.92,0,0,-17.92,0,0,0,0,0,0,0,0,17.92,0,0,0,0,0,0,0,-17.92,0,0,0,0,0,0,0,0,0,-17.92,0,0,-17.92,0,0,-17.92,0,0
1728658343000,,0.93696,0,-0.374784,0.93696,0,-0.374784,0.93696,0,-0.374784,0.93696,0,-0.374784,0.93696,0,-0.374784,0.93696,0,-0.374784,0.93696,0,-0.374784,0.93696,0,-0.374784,0.93696,0,-0.374784,0.93696,0,-0.374784,0.93696,0,-0.374784,0.93696,0,-0.374784,0.93696,0,-0.374784,0.93696,0,-0.374784,0.93696,0,-0.374784,0.93696,0,-0.374784,0.93696,0,-0.374784,0.93696,0,-0.374784,0.93696,0,-0.374784,0.93696,0,-0.374784,0.93696,0,-0.374784,0.93696,0,-0.374784,0.93696,0,-0.374784,0.93696,0,-0.374784,0.93696,0,-0.374784,0.93696,0,-0.374784,0.93696,0,-0.374784,0.93696,0,-0.374784,0.93696,0,-0.374784,0.93696,0,-0.374784,0.93696,0,-0.374784,0.93696,0,-0.374784,0.93696,0,-0.374784,0.93696,0,-0.374784,0.93696,0,-0.374784,0.93696,0,-0.374784,0.93696,0,-0.374784,0.93696,0,-0.374784,0.93696,0,-0.374784,0.93696,0,-0.374784,0.93696,0,-0.374784,0.93696,0,-0.374784,0.93696,0,-0.374784,0.93696,0,-0.374784,0.93696,0,-0.374784,0.93696,0,-0.374784,0.93696,0,-0.374784,0.93696,0,-0.374784,0.93696,0,-0.374784,0.93696,0,-0.374784,0.93696,0,-0.374784,0.93696,0,-0.374784,0.93696,0,-0.374784,0.93696,0,-0.374784,0.93696,0,-0.374784,0.93696,0,-0.374784,0.93696,0,-0.374784,0.93696,0,-0.374784,0.93696,0,-0.374784,0.93696,0,-0.374784,0.93696,0,-0.374784,0.93696,0,-0.374784,0.93696,0,-0.374784,0.93696,0,-0.374784,0.93696,0,-0.374784,0.93696,0,-0.374784,0.93696,0,-0.374784,0.93696,0,-0.374784,0.93696,0,-0.374784,0.93696,0,-0.374784,0.93696,0,-0.374784,0.93696,0,-0.374784,0.93696,0,-0.374784,0.93696,0,-0.374784,0.93696,0,-0.374784,0.93696,0,-0.374784,0.93696,0,-0.374784,0.93696,0,-0.374784,0.93696,-0.187392,-0.374784,0.93696,-0.187392,-0.374784,-17.92,0,0,-17.92,0,0,0,0,0,0,0,0,0,0,0,0,0,0,0,0,0,0,0,0,0,0,0,0,0,0,0,0,0,0,0,0,0,0,0,0,0,0,0,0,0,0,0,0,0,0,0,0,0,0,0,0,0,0,0,0
1728658344000,,0.93696,-0.187392,-0.374784,0.93696,-0.187392,-0.374784,0.93696,-0.187392,-0.374784,0.93696,-0.187392,-0.374784,0.93696,-0.187392,-0.374784,0.93696,0,-0.374784,0.93696,0,-0.374784,0.93696,-0.187392,-0.374784,0.93696,0,-0.374784,0.93696,0,-0.374784,0.93696,-0.187392,-0.374784,0.93696,0,-0.374784,0.93696,-0.187392,-0.374784,0.93696,-0.187392,-0.374784,0.93696,-0.187392,-0.374784,0.93696,0,-0.374784,0.93696,0,-0.374784,0.93696,0,-0.374784,0.93696,0,-0.374784,0.93696,0,-0.374784,0.93696,-0.187392,-0.374784,0.93696,0,-0.374784,0.93696,0,-0.374784,0.93696,0,-0.374784,0.93696,0,-0.374784,0.93696,0,-0.374784,0.93696,0,-0.374784,0.93696,0,-0.374784,0.93696,0,-0.374784,0.93696,0,-0.374784,0.93696,0,-0.374784,0.93696,0,-0.374784,0.93696,0,-0.374784,0.93696,-0.187392,-0.374784,0.93696,0,-0.374784,0.93696,0,-0.374784,0.93696,0,-0.374784,0.93696,0,-0.374784,0.93696,0,-0.374784,0.93696,0,-0.374784,0.93696,0,-0.374784,0.93696,0,-0.374784,0.93696,0,-0.374784,0.93696,0,-0.374784,0.93696,0,-0.374784,0.93696,0,-0.374784,0.93696,0,-0.374784,0.93696,0,-0.374784,0.93696,0,-0.374784,0.93696,0,-0.374784,0.93696,0,-0.374784,0.93696,-0.187392,-0.374784,0.93696,-0.187392,-0.374784,0.93696,0,-0.374784,0.93696,0,-0.374784,0.93696,0,-0.374784,0.93696,0,-0.374784,0.93696,0,-0.374784,0.93696,0,-0.374784,0.93696,0,-0.374784,0.93696,0,-0.374784,0.93696,0,-0.374784,0.93696,0,-0.374784,0.93696,0,-0.374784,0.93696,0,-0.374784,0.93696,0,-0.374784,0.93696,0,-0.374784,0.93696,0,-0.374784,0.93696,0,-0.374784,0.93696,0,-0.374784,0.93696,0,-0.374784,0.93696,0,-0.374784,0.93696,0,-0.374784,0.93696,-0.187392,-0.374784,0.93696,0,-0.374784,0.93696,-0.187392,-0.374784,0.93696,0,-0.374784,0.93696,0,-0.374784,0.93696,0,-0.374784,0.93696,0,-0.374784,0,0,0,0,0,0,0,0,0,0,0,0,0,0,0,0,0,0,0,0,0,0,0,0,0,0,0,0,0,0,0,0,0,0,0,0,0,0,0,17.92,0,0,17.92,0,0,0,0,0,0,0,0,0,0,0,0,0,0,17.92,0,0
1728658345000,,0.93696,0,-0.374784,0.93696,0,-0.374784,0.93696,0,-0.374784,0.93696,0,-0.374784,0.93696,0,-0.374784,0.93696,0,-0.374784,0.93696,0,-0.374784,0.93696,0,-0.374784,0.93696,0,-0.374784,0.93696,0,-0.374784,0.93696,0,-0.374784,0.93696,0,-0.374784,0.93696,0,-0.374784,0.93696,0,-0.374784,0.93696,0,-0.374784,0.93696,0,-0.374784,0.93696,0,-0.374784,0.93696,0,-0.374784,0.93696,0,-0.374784,0.93696,0,-0.374784,0.93696,0,-0.374784,0.93696,0,-0.374784,0.93696,0,-0.374784,0.93696,0,-0.374784,0.93696,0,-0.374784,0.93696,0,-0.374784,0.93696,0,-0.374784,0.93696,0,-0.374784,0.93696,0,-0.374784,0.93696,0,-0.374784,0.93696,0,-0.374784,0.93696,0,-0.374784,0.93696,0,-0.374784,0.93696,0,-0.374784,0.93696,0,-0.374784,0.93696,0,-0.374784,0.93696,0,-0.374784,0.93696,0,-0.374784,0.93696,0,-0.374784,0.93696,0,-0.374784,0.93696,0,-0.374784,0.93696,0,-0.374784,0.93696,0,-0.374784,0.93696,0,-0.374784,0.93696,0,-0.374784,0.93696,0,-0.374784,0.93696,0,-0.374784,0.93696,0,-0.374784,0.93696,0,-0.374784,0.93696,0,-0.374784,0.93696,0,-0.374784,0.93696,0,-0.374784,0.93696,0,-0.374784,0.93696,0,-0.374784,0.93696,0,-0.374784,0.93696,0,-0.374784,0.93696,0,-0.374784,0.93696,0,-0.374784,0.93696,0,-0.374784,0.93696,0,-0.374784,0.93696,0,-0.374784,0.93696,0,-0.374784,0.93696,0,-0.374784,0.93696,0,-0.374784,0.93696,0,-0.374784,0.93696,0,-0.374784,0.93696,0,-0.374784,0.93696,0,-0.374784,0.93696,0,-0.374784,0.93696,0,-0.374784,0.93696,0,-0.374784,0.93696,0,-0.374784,0.93696,0,-0.374784,0.93696,0,-0.374784,0.93696,0,-0.374784,0.93696,0,-0.374784,0.93696,0,-0.374784,0.93696,0,-0.374784,0.93696,0,-0.374784,0.93696,0,-0.374784,17.92,0,0,17.92,0,0,0,0,0,17.92,0,0,17.92,0,0,0,0,0,0,0,0,0,0,0,0,0,0,0,0,0,0,0,0,0,0,0,0,0,0,0,0,0,0,0,0,0,0,0,0,0,0,0,0,0,0,0,0,0,0,0
1728658346000,,0.93696,0,-0.374784,0.93696,0,-0.374784,0.93696,0,-0.374784,0.93696,0,-0.374784,0.93696,0,-0.374784,0.93696,0,-0.374784,0.93696,0,-0.374784,0.93696,0,-0.374784,0.93696,0,-0.374784,0.93696,0,-0.374784,0.93696,0,-0.374784,0.93696,0,-0.374784,0.93696,0,-0.374784,0.93696,0,-0.374784,0.93696,0,-0.374784,0.93696,0,-0.374784,0.93696,0,-0.374784,0.93696,0,-0.374784,0.93696,0,-0.374784,0.93696,0,-0.374784,0.93696,0,-0.374784,0.93696,0,-0.374784,0.93696,0,-0.374784,0.93696,0,-0.374784,0.93696,0,-0.374784,0.93696,0,-0.374784,0.93696,0,-0.374784,0.93696,0,-0.374784,0.93696,0,-0.374784,0.93696,0,-0.374784,0.93696,0,-0.374784,0.93696,0,-0.374784,0.93696,0,-0.374784,0.93696,0,-0.374784,0.93696,0,-0.374784,0.93696,0,-0.374784,0.93696,0,-0.374784,0.93696,0,-0.374784,0.93696,0,-0.374784,0.93696,0,-0.374784,0.93696,0,-0.374784,0.93696,0,-0.374784,0.93696,0,-0.374784,0.93696,0,-0.374784,0.93696,0,-0.374784,0.93696,0,-0.374784,0.93696,0,-0.374784,0.93696,0,-0.374784,0.93696,0,-0.374784,0.93696,0,-0.374784,0.93696,0,-0.374784,0.93696,0,-0.374784,0.93696,0,-0.374784,0.93696,0,-0.374784,0.93696,0,-0.374784,0.93696,0,-0.374784,0.93696,0,-0.374784,0.93696,0,-0.374784,0.93696,0,-0.374784,0.93696,0,-0.374784,0.93696,0,-0.374784,0.93696,0,-0.374784,0.93696,0,-0.374784,0.93696,0,-0.374784,0.93696,0,-0.374784,0.93696,0,-0.374784,0.93696,0,-0.374784,0.93696,0,-0.374784,0.93696,0,-0.374784,0.93696,0,-0.374784,0.93696,0,-0.374784,0.93696,0,-0.374784,0.93696,0,-0.374784,0.93696,0,-0.374784,0.93696,0,-0.374784,0.93696,0,-0.374784,0.93696,0,-0.374784,0.93696,0,-0.374784,0.93696,0,-0.374784,0.93696,0,-0.374784,0,0,0,0,0,0,0,0,0,0,0,0,0,0,0,0,0,0,0,0,0,0,0,0,0,0,0,0,0,0,0,0,0,0,0,0,0,0,0,0,0,0,0,0,0,0,0,0,0,0,0,0,0,0,0,0,0,17.92,0,0
1728658347000,,0.93696,0,-0.374784,0.93696,0,-0.374784,0.93696,0,-0.374784,0.93696,0,-0.374784,0.93696,0,-0.374784,0.93696,0,-0.374784,0.93696,0,-0.374784,0.93696,0,-0.374784,0.93696,0,-0.374784,0.93696,0,-0.374784,0.93696,0,-0.374784,0.93696,0,-0.374784,0.93696,0,-0.374784,0.93696,0,-0.374784,0.93696,0,-0.374784,0.93696,0,-0.374784,0.93696,0,-0.374784,0.93696,0,-0.374784,0.93696,0,-0.374784,0.93696,0,-0.374784,0.93696,0,-0.374784,0.93696,0,-0.374784,0.93696,0,-0.374784,0.93696,0,-0.374784,0.93696,0,-0.374784,0.93696,0,-0.374784,0.93696,0,-0.374784,0.93696,0,-0.374784,0.93696,0,-0.374784,0.93696,0,-0.374784,0.93696,0,-0.374784,0.93696,0,-0.374784,0.93696,0,-0.374784,0.93696,0,-0.374784,0.93696,0,-0.374784,0.93696,0,-0.374784,0.93696,0,-0.374784,0.93696,0,-0.374784,0.93696,0,-0.374784,0.93696,0,-0.374784,0.93696,0,-0.374784,0.93696,0,-0.374784,0.93696,0,-0.374784,0.93696,0,-0.374784,0.93696,0,-0.374784,0.93696,0,-0.374784,0.93696,0,-0.374784,0.93696,0,-0.374784,0.93696,0,-0.374784,0.93696,0,-0.374784,0.93696,0,-0.374784,0.93696,0,-0.374784,0.93696,0,-0.374784,0.93696,0,-0.374784,0.93696,0,-0.374784,0.93696,0,-0.374784,0.93696,0,-0.374784,0.93696,0,-0.374784,0.93696,0,-0.374784,0.93696,0,-0.374784,0.93696,0,-0.374784,0.93696,0,-0.374784,0.93696,0,-0.374784,0.93696,0,-0.374784,0.93696,0,-0.374784,0.93696,0,-0.374784,0.93696,0,-0.374784,0.93696,0,-0.374784,0.93696,0,-0.374784,0.93696,0,-0.374784,0.93696,0,-0.374784,0.93696,0,-0.374784,0.93696,0,-0.374784,0.93696,0,-0.374784,0.93696,0,-0.374784,0.93696,0,-0.374784,0.93696,0,-0.374784,0.93696,0,-0.374784,0.93696,0,-0.374784,0.93696,0,-0.374784,17.92,0,0,17.92,0,0,0,0,0,0,0,0,0,0,0,0,0,0,0,0,0,0,0,0,0,0,0,0,0,0,0,0,0,0,0,0,0,0,0,0,0,0,0,0,0,0,0,0,0,0,0,0,0,0,0,0,0,0,0,0
1728658348000,,0.93696,0,-0.374784,0.93696,0,-0.374784,0.93696,0,-0.374784,0.93696,0,-0.374784,0.93696,0,-0.374784,0.93696,0,-0.374784,0.93696,0,-0.374784,0.93696,0,-0.374784,0.93696,0,-0.374784,0.93696,0,-0.374784,0.93696,0,-0.374784,0.93696,0,-0.374784,0.93696,0,-0.374784,0.93696,0,-0.374784,0.93696,0,-0.374784,0.93696,0,-0.374784,0.93696,0,-0.374784,0.93696,0,-0.374784,0.93696,0,-0.374784,0.93696,0,-0.374784,0.93696,0,-0.374784,0.93696,0,-0.374784,0.93696,0,-0.374784,0.93696,0,-0.374784,0.93696,0,-0.374784,0.93696,0,-0.374784,0.93696,0,-0.374784,0.93696,0,-0.374784,0.93696,0,-0.374784,0.93696,0,-0.374784,0.93696,0,-0.374784,0.93696,0,-0.374784,0.93696,0,-0.374784,0.93696,0,-0.374784,0.93696,0,-0.374784,0.93696,0,-0.374784,0.93696,0,-0.374784,0.93696,0,-0.374784,0.93696,0,-0.374784,0.93696,0,-0.374784,0.93696,0,-0.374784,0.93696,0,-0.374784,0.93696,0,-0.374784,0.93696,0,-0.374784,0.93696,0,-0.374784,0.93696,0,-0.374784,0.93696,0,-0.374784,0.93696,0,-0.374784,0.93696,0,-0.374784,0.93696,0,-0.374784,0.93696,0,-0.374784,0.93696,0,-0.374784,0.93696,0,-0.374784,0.93696,0,-0.374784,0.93696,0,-0.374784,0.93696,0,-0.374784,0.93696,0,-0.374784,0.93696,0,-0.374784,0.93696,0,-0.374784,0.93696,0,-0.374784,0.93696,0,-0.374784,0.93696,0,-0.374784,0.93696,0,-0.374784,0.93696,0,-0.374784,0.93696,0,-0.374784,0.93696,0,-0.374784,0.93696,0,-0.374784,0.93696,0,-0.374784,0.93696,0,-0.374784,0.93696,0,-0.374784,0.93696,0,-0.374784,0.93696,0,-0.374784,0.93696,0,-0.374784,0.93696,0,-0.374784,0.93696,0,-0.374784,0.93696,0,-0.374784,0.93696,0,-0.374784,0.93696,0,-0.374784,0.93696,0,-0.374784,0.93696,0,-0.374784,0,0,0,0,0,0,0,0,0,0,0,0,0,0,0,0,0,0,0,0,0,0,0,0,0,0,0,0,0,0,0,0,0,0,0,0,0,0,0,0,0,0,0,0,0,0,0,0,0,0,0,0,0,0,0,0,0,0,0,0
1728658349000,,0.93696,0,-0.374784,0.93696,0,-0.374784,0.93696,0,-0.374784,0.93696,0,-0.374784,0.93696,0,-0.374784,0.93696,0,-0.374784,0.93696,0,-0.374784,0.93696,0,-0.374784,0.93696,0,-0.374784,0.93696,0,-0.374784,0.93696,0,-0.374784,0.93696,0,-0.374784,0.93696,0,-0.374784,0.93696,0,-0.374784,0.93696,0,-0.374784,0.93696,0,-0.374784,0.93696,0,-0.374784,0.93696,0,-0.374784,0.93696,0,-0.374784,0.93696,0,-0.374784,0.93696,0,-0.374784,0.93696,0,-0.374784,0.93696,0,-0.374784,0.93696,0,-0.374784,0.93696,0,-0.374784,0.93696,0,-0.374784,0.93696,0,-0.374784,0.93696,0,-0.374784,0.93696,0,-0.374784,0.93696,0,-0.374784,0.93696,0,-0.374784,0.93696,0,-0.374784,0.93696,0,-0.374784,0.93696,0,-0.374784,0.93696,0,-0.374784,0.93696,0,-0.374784,0.93696,0,-0.374784,0.93696,0,-0.374784,0.93696,0,-0.374784,0.93696,0,-0.374784,0.93696,0,-0.374784,0.93696,0,-0.374784,0.93696,0,-0.374784,0.93696,0,-0.374784,0.93696,0,-0.374784,0.93696,0,-0.374784,0.93696,0,-0.374784,0.93696,0,-0.374784,0.93696,0,-0.374784,0.93696,0,-0.374784,0.93696,0,-0.374784,0.93696,0,-0.374784,0.93696,0,-0.374784,0.93696,0,-0.374784,0.93696,0,-0.374784,0.93696,0,-0.374784,0.93696,0,-0.374784,0.93696,0,-0.374784,0.93696,0,-0.374784,0.93696,0,-0.374784,0.93696,0,-0.374784,0.93696,0,-0.374784,0.93696,0,-0.374784,0.93696,0,-0.374784,0.93696,0,-0.374784,0.93696,0,-0.374784,0.93696,0,-0.374784,0.93696,0,-0.374784,0.93696,0,-0.374784,0.93696,0,-0.374784,0.93696,0,-0.374784,0.93696,0,-0.374784,0.93696,0,-0.374784,0.93696,0,-0.374784,0.93696,0,-0.374784,0.93696,0,-0.374784,0.93696,0,-0.374784,0.93696,0,-0.374784,0.93696,0,-0.374784,0.93696,0,-0.374784,0,0,0,0,0,0,0,0,0,0,0,0,0,0,0,0,0,0,0,0,0,0,0,0,0,0,0,0,0,0,0,0,0,0,0,0,0,0,0,0,0,0,0,0,0,0,0,0,0,0,0,0,0,0,0,0,0,0,0,0
1728658350000,,0.93696,0,-0.374784,0.93696,0,-0.374784,0.93696,0,-0.374784,0.93696,0,-0.374784,0.93696,0,-0.374784,0.93696,0,-0.374784,0.93696,0,-0.374784,0.93696,0,-0.374784,0.93696,0,-0.374784,0.93696,0,-0.374784,0.93696,0,-0.374784,0.93696,0,-0.374784,0.93696,0,-0.374784,0.93696,0,-0.374784,0.93696,0,-0.374784,0.93696,0,-0.374784,0.93696,0,-0.374784,0.93696,0,-0.374784,0.93696,0,-0.374784,0.93696,0,-0.374784,0.93696,0,-0.374784,0.93696,0,-0.374784,0.93696,0,-0.374784,0.93696,0,-0.374784,0.93696,0,-0.374784,0.93696,0,-0.374784,0.93696,0,-0.374784,0.93696,0,-0.374784,0.93696,0,-0.374784,0.93696,0,-0.374784,0.93696,0,-0.374784,0.93696,0,-0.374784,0.93696,0,-0.374784,0.93696,0,-0.374784,0.93696,0,-0.374784,0.93696,0,-0.374784,0.93696,0,-0.374784,0.93696,0,-0.374784,0.93696,0,-0.374784,0.93696,0,-0.374784,0.93696,0,-0.374784,0.93696,0,-0.374784,0.93696,0,-0.374784,0.93696,0,-0.374784,0.93696,0,-0.374784,0.93696,0,-0.374784,0.93696,0,-0.374784,0.93696,-0.187392,-0.374784,0.93696,-0.187392,-0.374784,0.93696,-0.187392,-0.374784,0.93696,-0.187392,-0.374784,0.93696,-0.187392,-0.374784,0.93696,-0.187392,-0.374784,0.93696,-0.187392,-0.374784,0.93696,-0.187392,-0.374784,0.93696,-0.187392,-0.374784,0.93696,-0.187392,-0.374784,0.93696,-0.187392,-0.374784,0.93696,-0.187392,-0.374784,0.749568,-0.187392,-0.374784,0.93696,-0.187392,-0.374784,0.93696,-0.187392,-0.374784,0.749568,-0.187392,-0.374784,0.749568,-0.187392,-0.374784,0.93696,-0.187392,-0.374784,0.93696,-0.187392,-0.374784,0.93696,-0.187392,-0.374784,0.749568,-0.374784,-0.374784,0.749568,-0.374784,-0.562176,0.749568,-0.374784,-0.374784,0.93696,-0.374784,-0.374784,0.93696,-0.374784,-0.374784,0.93696,-0.374784,-0.562176,0.749568,-0.187392,-0.562176,0.749568,-0.187392,-0.374784,0.749568,-0.187392,-0.374784,0.749568,-0.374784,-0.374784,0.749568,-0.374784,-0.374784,0.749568,-0.374784,-0.374784,0.749568,-0.374784,-0.374784,0,0,0,0,0,0,0,0,0,0,0,0,0,0,0,0,0,0,-17.92,0,0,-17.92,0,-17.92,-17.92,0,-17.92,-35.84,0,-17.92,-35.84,17.92,-17.92,-35.84,17.92,-17.92,-53.76,17.92,-17.92,-53.76,17.92,0,-53.76,17.92,0,-35.84,17.92,0,-35.84,17.92,0,-35.84,17.92,0,-35.84,17.92,0,-35.84,17.92,0
1728658351000,,0.749568,-0.374784,-0.374784,0.749568,-0.374784,-0.562176,0.749568,-0.374784,-0.562176,0.749568,-0.374784,-0.562176,0.749568,-0.374784,-0.562176,0.749568,-0.374784,-0.562176,0.749568,-0.374784,-0.562176,0.749568,-0.374784,-0.562176,0.749568,-0.374784,-0.562176,0.749568,-0.374784,-0.562176,0.749568,-0.374784,-0.562176,0.749568,-0.374784,-0.562176,0.749568,-0.374784,-0.562176,0.749568,-0.374784,-0.562176,0.749568,-0.374784,-0.562176,0.749568,-0.374784,-0.562176,0.749568,-0.374784,-0.562176,0.749568,-0.374784,-0.562176,0.749568,-0.374784,-0.562176,0.749568,-0.374784,-0.562176,0.749568,-0.374784,-0.562176,0.749568,-0.374784,-0.562176,0.749568,-0.374784,-0.562176,0.749568,-0.374784,-0.562176,0.749568,-0.374784,-0.562176,0.749568,-0.374784,-0.562176,0.749568,-0.374784,-0.562176,0.749568,-0.374784,-0.562176,0.749568,-0.374784,-0.562176,0.749568,-0.374784,-0.562176,0.749568,-0.374784,-0.562176,0.749568,-0.374784,-0.562176,0.749568,-0.374784,-0.562176,0.749568,-0.374784,-0.562176,0.749568,-0.374784,-0.562176,0.749568,-0.374784,-0.562176,0.749568,-0.374784,-0.562176,0.749568,-0.374784,-0.562176,0.749568,-0.374784,-0.562176,0.749568,-0.374784,-0.562176,0.749568,-0.374784,-0.562176,0.749568,-0.374784,-0.562176,0.749568,-0.374784,-0.562176,0.749568,-0.374784,-0.562176,0.749568,-0.374784,-0.562176,0.749568,-0.374784,-0.562176,0.749568,-0.374784,-0.374784,0.749568,-0.374784,-0.562176,0.749568,-0.374784,-0.562176,0.749568,-0.374784,-0.374784,0.749568,-0.374784,-0.374784,0.749568,-0.374784,-0.374784,0.749568,-0.374784,-0.374784,0.749568,-0.374784,-0.374784,0.749568,-0.374784,-0.374784,0.749568,-0.374784,-0.374784,0.749568,-0.374784,-0.374784,0.749568,-0.374784,-0.374784,0.93696,-0.374784,-0.374784,0.93696,-0.374784,-0.374784,0.93696,-0.187392,-0.374784,0.93696,-0.187392,-0.374784,0.93696,-0.187392,-0.374784,0.93696,-0.187392,-0.374784,0.93696,-0.187392,-0.374784,0.93696,-0.187392,-0.374784,0.93696,-0.187392,-0.374784,0.93696,-0.187392,-0.374784,0.93696,-0.187392,-0.374784,0.93696,-0.187392,-0.374784,0.93696,-0.187392,-0.374784,0.93696,-0.187392,-0.374784,0.93696,-0.187392,-0.374784,0.93696,-0.187392,-0.374784,0.93696,-0.187392,-0.374784,0.93696,-0.187392,-0.374784,0.93696,-0.187392,-0.374784,0.93696,-0.187392,-0.374784,0.93696,-0.187392,-0.374784,0.93696,-0.187392,-0.374784,-35.84,17.92,0,-35.84,17.92,0,-35.84,35.84,0,-35.84,35.84,17.92,-35.84,35.84,17.92,-35.84,17.92,17.92,-17.92,17.92,17.92,-17.92,17.92,17.92,-17.92,17.92,17.92,-17.92,0,35.84,-17.92,0,35.84,-17.92,-17.92,35.84,-17.92,-17.92,35.84,-17.92,-17.92,35.84,-17.92,-17.92,35.84,-17.92,-17.92,17.92,-17.92,0,35.84,-17.92,0,35.84,-17.92,0,35.84,-17.92,0,35.84
1728658352000,,0.93696,0,-0.374784,0.93696,0,-0.374784,0.93696,0,-0.374784,0.93696,0,-0.374784,0.93696,0,-0.374784,0.93696,0,-0.374784,0.93696,0,-0.374784,0.93696,0,-0.374784,0.93696,0,-0.374784,0.93696,0,-0.374784,0.93696,0,-0.374784,0.93696,0,-0.374784,0.93696,0,-0.374784,0.93696,0,-0.374784,0.93696,0,-0.374784,0.93696,0,-0.374784,0.93696,0,-0.374784,0.93696,0,-0.374784,0.93696,0,-0.374784,0.93696,0,-0.374784,0.93696,0,-0.374784,0.93696,0,-0.374784,0.93696,0,-0.374784,0.93696,0,-0.374784,0.93696,0,-0.374784,0.93696,0,-0.374784,0.93696,0,-0.374784,0.93696,0,-0.374784,0.93696,0,-0.374784,0.93696,0,-0.374784,0.93696,0.187392,-0.374784,0.93696,0.187392,-0.374784,0.93696,0.187392,-0.374784,0.93696,0.187392,-0.374784,0.93696,0.187392,-0.374784,0.93696,0.187392,-0.374784,0.93696,0.187392,-0.374784,0.93696,0,-0.374784,0.93696,0,-0.374784,0.93696,0.187392,-0.374784,0.93696,0,-0.374784,0.93696,0,-0.374784,0.93696,0.187392,-0.374784,0.93696,0,-0.374784,0.93696,0,-0.374784,0.93696,0.187392,-0.374784,0.93696,0,-0.374784,0.93696,0,-0.374784,0.93696,0,-0.374784,0.93696,0,-0.374784,0.93696,0.187392,-0.374784,0.93696,0.187392,-0.374784,0.93696,0.187392,-0.374784,0.93696,0,-0.374784,0.93696,0,-0.374784,0.93696,0.187392,-0.374784,0.93696,0,-0.374784,0.93696,0,-0.374784,0.93696,0.187392,-0.374784,0.93696,0,-0.374784,0.93696,0.187392,-0.374784,0.93696,0,-0.374784,0.93696,0,-0.374784,0.93696,0.187392,-0.374784,0.93696,0.187392,-0.374784,0.93696,0.187392,-0.374784,0.93696,0.187392,-0.374784,0.93696,0,-0.374784,0.93696,0,-0.374784,0.93696,0.187392,-0.374784,0.93696,0,-0.562176,0.93696,0.187392,-0.374784,0.93696,0.187392,-0.374784,0.93696,0,-0.374784,0.93696,0,-0.374784,0.93696,0,-0.374784,0.93696,0,-0.562176,0.93696,0,-0.374784,0.93696,0,-0.374784,0.93696,0,-0.562176,-17.92,0,35.84,-17.92,0,35.84,-17.92,0,35.84,-35.84,0,35.84,-35.84,0,17.92,-35.84,0,17.92,-35.84,17.92,17.92,-35.84,17.92,35.84,-35.84,0,35.84,-53.76,0,35.84,-53.76,0,35.84,-53.76,0,35.84,-53.76,0,35.84,-53.76,17.92,35.84,-53.76,17.92,35.84,-53.76,17.92,35.84,-53.76,0,35.84,-53.76,0,35.84,-53.76,0,35.84,-53.76,0,35.84
1728658353000,,0.93696,0.187392,-0.374784,0.93696,0.187392,-0.562176,0.93696,0.187392,-0.562176,0.93696,0.187392,-0.562176,0.93696,0.187392,-0.562176,0.93696,0.187392,-0.562176,0.93696,0.187392,-0.374784,0.93696,0.187392,-0.374784,0.93696,0.187392,-0.374784,0.93696,0.187392,-0.374784,0.93696,0.187392,-0.374784,0.93696,0.187392,-0.374784,0.93696,0.187392,-0.374784,0.93696,0.187392,-0.374784,0.93696,0.187392,-0.562176,0.93696,0.187392,-0.374784,0.93696,0.187392,-0.374784,0.93696,0.187392,-0.374784,0.93696,0.187392,-0.562176,0.93696,0.187392,-0.562176,0.93696,0.187392,-0.562176,0.93696,0.187392,-0.562176,0.93696,0.187392,-0.562176,0.93696,0.187392,-0.562176,0.93696,0.187392,-0.562176,0.93696,0.187392,-0.562176,0.93696,0.187392,-0.562176,0.749568,0.187392,-0.562176,0.749568,0.187392,-0.562176,0.749568,0.187392,-0.562176,0.749568,0.187392,-0.562176,0.93696,0,-0.562176,0.93696,0,-0.562176,0.93696,0,-0.562176,0.93696,0,-0.562176,0.93696,0,-0.562176,0.93696,0,-0.562176,0.93696,0,-0.562176,0.93696,0,-0.562176,0.749568,0,-0.562176,0.749568,0,-0.562176,0.749568,0,-0.562176,0.749568,0,-0.562176,0.749568,0,-0.562176,0.749568,0,-0.562176,0.749568,0,-0.562176,0.749568,0,-0.562176,0.749568,0,-0.562176,0.749568,0,-0.562176,0.749568,0,-0.562176,0.749568,0,-0.562176,0.749568,0,-0.562176,0.749568,0,-0.562176,0.93696,0,-0.562176,0.749568,0,-0.562176,0.749568,0,-0.562176,0.749568,0,-0.562176,0.749568,0,-0.562176,0.749568,0,-0.562176,0.749568,0,-0.562176,0.749568,0,-0.562176,0.749568,0,-0.562176,0.749568,0,-0.562176,0.749568,0,-0.562176,0.749568,0,-0.562176,0.749568,0,-0.562176,0.749568,0,-0.562176,0.749568,0,-0.562176,0.749568,-0.187392,-0.749568,0.749568,-0.187392,-0.749568,0.562176,-0.187392,-0.749568,0.562176,-0.374784,-0.749568,0.749568,-0.374784,-0.749568,0.749568,-0.374784,-0.749568,0.749568,-0.187392,-0.749568,0.562176,-0.187392,-0.749568,0.562176,-0.374784,-0.749568,0.562176,-0.187392,-0.749568,0.562176,-0.187392,-0.749568,0.562176,-0.187392,-0.749568,-35.84,0,35.84,-35.84,0,17.92,-35.84,0,17.92,-35.84,0,17.92,-35.84,0,17.92,-53.76,0,17.92,-53.76,17.92,17.92,-53.76,17.92,17.92,-53.76,17.92,0,-53.76,17.92,0,-35.84,17.92,0,-17.92,17.92,0,-17.92,17.92,0,-17.92,17.92,0,-35.84,35.84,0,-35.84,35.84,0,-35.84,53.76,0,-17.92,71.68,17.92,-17.92,71.68,0,0,71.68,0
1728658354000,,0.562176,-0.187392,-0.749568,0.374784,-0.187392,-0.749568,0.374784,-0.374784,-0.749568,0.374784,-0.187392,-0.749568,0.374784,-0.187392,-0.749568,0.374784,-0.187392,-0.749568,0.374784,-0.374784,-0.749568,0.374784,-0.187392,-0.749568,0.374784,-0.187392,-0.749568,0.374784,-0.187392,-0.749568,0.374784,-0.187392,-0.749568,0.187392,-0.187392,-0.749568,0.187392,-0.187392,-0.749568,0.187392,-0.187392,-0.749568,0.187392,-0.187392,-0.749568,0.187392,-0.187392,-0.749568,0.187392,-0.187392,-0.749568,0.187392,-0.187392,-0.749568,0.187392,-0.187392,-0.749568,0.187392,-0.187392,-0.749568,0,-0.187392,-0.749568,0.187392,-0.187392,-0.749568,0.187392,0,-0.749568,0,0,-0.749568,0,0,-0.93696,0,0,-0.93696,0,0.187392,-0.93696,0,0.187392,-0.93696,0,0.187392,-0.93696,0,0.187392,-0.93696,0,0.187392,-0.93696,0,0.187392,-0.93696,0,0.187392,-0.93696,-0.187392,0.187392,-0.93696,-0.187392,0.187392,-0.93696,-0.187392,0.374784,-0.93696,-0.187392,0.374784,-0.93696,-0.187392,0.374784,-0.93696,-0.187392,0.374784,-0.93696,-0.374784,0.374784,-0.93696,-0.374784,0.374784,-0.93696,-0.374784,0.374784,-0.93696,-0.374784,0.374784,-0.93696,-0.374784,0.374784,-0.93696,-0.374784,0.374784,-0.93696,-0.374784,0.374784,-0.93696,-0.374784,0.374784,-0.93696,-0.374784,0.374784,-0.93696,-0.374784,0.374784,-0.93696,-0.562176,0.374784,-0.93696,-0.562176,0.374784,-0.93696,-0.374784,0.562176,-0.93696,-0.374784,0.562176,-0.93696,-0.374784,0.562176,-0.93696,-0.374784,0.562176,-0.93696,-0.374784,0.562176,-0.93696,-0.374784,0.562176,-0.93696,-0.562176,0.562176,-0.93696,-0.562176,0.562176,-0.93696,-0.562176,0.562176,-0.93696,-0.562176,0.749568,-0.93696,-0.562176,0.562176,-0.93696,-0.562176,0.562176,-0.93696,-0.562176,0.562176,-0.93696,-0.562176,0.562176,-0.93696,-0.562176,0.562176,-0.93696,-0.562176,0.562176,-0.93696,-0.562176,0.562176,-0.93696,-0.562176,0.562176,-0.93696,-0.562176,0.562176,-0.93696,-0.562176,0.562176,-0.93696,-0.562176,0.749568,-0.93696,-0.562176,0.749568,-0.93696,-0.562176,0.749568,-0.93696,-0.562176,0.562176,-0.93696,-0.562176,0.562176,-0.93696,-0.562176,0.562176,-0.93696,-0.562176,0.562176,-0.93696,-0.562176,0.562176,-0.93696,-0.562176,0.562176,-0.93696,0,71.68,17.92,0,89.6,17.92,17.92,89.6,17.92,17.92,89.6,17.92,35.84,89.6,17.92,35.84,89.6,0,53.76,107.52,0,53.76,107.52,0,53.76,89.6,0,53.76,89.6,17.92,53.76,89.6,0,35.84,71.68,0,53.76,53.76,0,53.76,35.84,0,35.84,35.84,0,35.84,35.84,0,17.92,17.92,17.92,17.92,17.92,0,0,0,0,0,0,17.92
1728658355000,,-0.562176,0.562176,-0.749568,-0.562176,0.562176,-0.749568,-0.562176,0.562176,-0.749568,-0.562176,0.374784,-0.749568,-0.562176,0.374784,-0.749568,-0.374784,0.374784,-0.749568,-0.374784,0.374784,-0.749568,-0.374784,0.374784,-0.749568,-0.374784,0.374784,-0.749568,-0.374784,0.374784,-0.749568,-0.374784,0.374784,-0.749568,-0.374784,0.374784,-0.749568,-0.374784,0.374784,-0.749568,-0.374784,0.374784,-0.749568,-0.374784,0.374784,-0.749568,-0.374784,0.374784,-0.749568,-0.374784,0.374784,-0.749568,-0.374784,0.374784,-0.749568,-0.374784,0.374784,-0.749568,-0.374784,0.562176,-0.749568,-0.374784,0.562176,-0.749568,-0.374784,0.562176,-0.749568,-0.374784,0.562176,-0.749568,-0.374784,0.562176,-0.749568,-0.374784,0.562176,-0.749568,-0.374784,0.562176,-0.749568,-0.374784,0.562176,-0.749568,-0.374784,0.562176,-0.749568,-0.374784,0.562176,-0.749568,-0.374784,0.562176,-0.749568,-0.374784,0.562176,-0.749568,-0.374784,0.562176,-0.749568,-0.374784,0.562176,-0.93696,-0.374784,0.562176,-0.93696,-0.374784,0.562176,-0.93696,-0.374784,0.562176,-0.93696,-0.374784,0.562176,-0.93696,-0.374784,0.562176,-0.93696,-0.374784,0.562176,-0.93696,-0.374784,0.562176,-0.93696,-0.374784,0.562176,-0.93696,-0.374784,0.562176,-0.93696,-0.374784,0.562176,-0.93696,-0.374784,0.562176,-0.93696,-0.374784,0.562176,-0.93696,-0.374784,0.562176,-0.93696,-0.374784,0.562176,-0.93696,-0.562176,0.562176,-0.93696,-0.374784,0.562176,-0.93696,-0.374784,0.562176,-0.93696,-0.374784,0.562176,-0.93696,-0.374784,0.562176,-0.93696,-0.374784,0.562176,-0.93696,-0.374784,0.562176,-0.93696,-0.374784,0.562176,-0.93696,-0.374784,0.562176,-0.93696,-0.374784,0.562176,-0.93696,-0.374784,0.562176,-0.93696,-0.374784,0.562176,-0.93696,-0.374784,0.562176,-0.93696,-0.374784,0.562176,-0.93696,-0.374784,0.562176,-0.93696,-0.374784,0.562176,-0.93696,-0.374784,0.374784,-0.93696,-0.374784,0.562176,-0.93696,-0.374784,0.562176,-0.93696,-0.374784,0.562176,-0.93696,-0.374784,0.562176,-0.93696,-0.374784,0.562176,-0.93696,-0.374784,0.562176,-0.93696,-0.374784,0.562176,-0.93696,-0.374784,0.374784,-0.93696,-0.374784,0.374784,-0.93696,-0.374784,0.374784,-0.93696,-0.374784,0.374784,-0.93696,-0.374784,0.374784,-0.93696,-0.374784,0.374784,-0.93696,-0.374784,0.374784,-0.93696,-0.374784,0.374784,-0.93696,-0.374784,0.374784,-0.93696,-17.92,0,0,-17.92,0,0,0,0,0,0,0,0,17.92,0,-17.92,17.92,0,0,0,0,0,0,0,0,0,0,0,0,0,0,0,0,0,0,0,0,0,-17.92,0,0,-17.92,0,-17.92,-17.92,0,-17.92,-17.92,0,-17.92,-17.92,17.92,-17.92,-35.84,17.92,-17.92,-35.84,17.92,-17.92,-35.84,0
1728658356000,,-0.374784,0.374784,-0.93696,-0.374784,0.374784,-0.93696,-0.374784,0.374784,-0.93696,-0.374784,0.374784,-0.93696,-0.374784,0.374784,-0.93696,-0.374784,0.374784,-0.93696,-0.374784,0.374784,-0.93696,-0.374784,0.374784,-0.93696,-0.187392,0.374784,-0.93696,-0.187392,0.374784,-0.93696,-0.187392,0.374784,-0.93696,-0.187392,0.374784,-0.93696,-0.187392,0.374784,-0.93696,-0.187392,0.374784,-0.93696,-0.187392,0.187392,-0.93696,0,0.187392,-0.93696,0,0.187392,-0.93696,-0.187392,0.187392,-0.93696,-0.187392,0.187392,-0.93696,0,0.187392,-0.93696,0,0.187392,-0.93696,0,0.187392,-0.93696,0,0.187392,-0.93696,0,0.374784,-0.93696,0.187392,0.374784,-0.93696,0.187392,0.187392,-0.93696,0.187392,0.187392,-0.93696,0.187392,0.187392,-0.93696,0.187392,0.187392,-0.93696,0.187392,0.187392,-0.93696,0.187392,0.187392,-0.749568,0.187392,0.187392,-0.93696,0.187392,0.187392,-0.93696,0.187392,0.187392,-0.93696,0.187392,0.187392,-0.93696,0.374784,0.187392,-0.93696,0.374784,0.187392,-0.749568,0.374784,0.187392,-0.749568,0.374784,0.187392,-0.749568,0.374784,0.187392,-0.749568,0.374784,0.187392,-0.749568,0.374784,0.187392,-0.749568,0.374784,0.187392,-0.749568,0.374784,0.187392,-0.93696,0.374784,0.187392,-0.749568,0.374784,0.187392,-0.749568,0.374784,0.187392,-0.749568,0.374784,0.187392,-0.749568,0.562176,0.187392,-0.749568,0.562176,0.187392,-0.749568,0.562176,0.187392,-0.749568,0.562176,0.187392,-0.749568,0.562176,0.187392,-0.749568,0.562176,0.187392,-0.749568,0.562176,0.187392,-0.749568,0.562176,0.187392,-0.749568,0.562176,0.187392,-0.749568,0.562176,0.187392,-0.749568,0.562176,0.187392,-0.749568,0.562176,0.187392,-0.749568,0.562176,0.187392,-0.749568,0.562176,0.187392,-0.749568,0.562176,0.187392,-0.749568,0.749568,0.187392,-0.749568,0.749568,0.187392,-0.562176,0.749568,0.187392,-0.749568,0.749568,0.187392,-0.562176,0.749568,0.187392,-0.562176,0.749568,0,-0.562176,0.749568,0,-0.562176,0.749568,0,-0.562176,0.749568,0,-0.562176,0.749568,0.187392,-0.562176,0.749568,0.187392,-0.562176,0.749568,0,-0.562176,0.749568,0,-0.562176,0.749568,0,-0.562176,0.749568,0,-0.562176,0.749568,0,-0.562176,0.749568,0.187392,-0.562176,-17.92,-53.76,0,-17.92,-53.76,0,-17.92,-71.68,0,-17.92,-71.68,0,-17.92,-71.68,0,-17.92,-89.6,0,-17.92,-89.6,-17.92,-17.92,-89.6,-17.92,-17.92,-89.6,-17.92,-17.92,-71.68,-17.92,-17.92,-71.68,-17.92,-17.92,-71.68,-17.92,-17.92,-71.68,-17.92,-17.92,-71.68,-17.92,-17.92,-71.68,-17.92,-17.92,-71.68,-17.92,0,-53.76,-17.92,0,-53.76,-17.92,0,-53.76,-17.92,0,-35.84,-17.92
1728658357000,,0.93696,0,-0.562176,0.93696,0.187392,-0.562176,0.93696,0,-0.562176,0.93696,0,-0.562176,0.93696,0,-0.562176,0.749568,0,-0.562176,0.749568,0,-0.562176,0.93696,0,-0.562176,0.749568,0,-0.562176,0.749568,0,-0.562176,0.93696,0.187392,-0.562176,0.749568,0.187392,-0.562176,0.749568,0,-0.562176,0.93696,0.187392,-0.562176,0.93696,0.187392,-0.562176,0.93696,0,-0.562176,0.93696,0.187392,-0.562176,0.93696,0.187392,-0.562176,0.749568,0.187392,-0.562176,0.93696,0,-0.562176,0.749568,0,-0.562176,0.749568,0,-0.562176,0.93696,0,-0.562176,0.93696,0.187392,-0.562176,0.93696,0.187392,-0.562176,0.93696,0.187392,-0.562176,0.93696,0.187392,-0.562176,0.93696,0.187392,-0.562176,0.93696,0.187392,-0.562176,0.93696,0.187392,-0.562176,0.93696,0.187392,-0.562176,0.93696,0.187392,-0.562176,0.93696,0.187392,-0.562176,0.93696,0.187392,-0.562176,0.93696,0,-0.562176,0.93696,0,-0.562176,0.93696,0,-0.562176,0.93696,0,-0.562176,0.93696,0,-0.562176,0.93696,0,-0.562176,0.93696,0,-0.562176,0.93696,0,-0.562176,0.93696,0,-0.562176,0.93696,0,-0.562176,0.93696,0,-0.562176,0.93696,0,-0.374784,0.93696,0,-0.374784,0.93696,0,-0.374784,0.93696,0,-0.374784,0.93696,0,-0.374784,0.93696,0,-0.374784,0.93696,0,-0.374784,0.93696,0,-0.374784,0.93696,0,-0.374784,0.93696,0,-0.374784,0.93696,0,-0.374784,0.93696,0,-0.562176,0.93696,0,-0.374784,0.93696,0,-0.374784,0.93696,0,-0.374784,0.93696,0,-0.374784,0.93696,0,-0.374784,0.93696,0,-0.374784,0.93696,0,-0.374784,0.93696,0,-0.374784,0.93696,0,-0.562176,0.93696,0,-0.562176,0.93696,0,-0.562176,0.93696,0,-0.562176,0.93696,0,-0.562176,0.93696,0,-0.562176,0.93696,0,-0.562176,0.93696,0,-0.562176,0.93696,0,-0.562176,0.93696,0,-0.374784,0.93696,0,-0.562176,0.93696,0,-0.562176,0.749568,0.187392,-0.562176,0.749568,0,-0.562176,0.749568,0,-0.562176,0,-35.84,-17.92,17.92,-17.92,-17.92,17.92,-17.92,-17.92,17.92,-17.92,-17.92,17.92,-17.92,0,17.92,-17.92,0,17.92,-17.92,0,0,-17.92,0,0,0,0,0,0,0,0,0,0,0,0,0,0,0,0,0,0,0,0,17.92,0,0,17.92,0,0,35.84,0,17.92,35.84,0,17.92,53.76,0,17.92,53.76,17.92
1728658358000,,0.749568,0,-0.562176,0.749568,0.187392,-0.562176,0.749568,0.187392,-0.562176,0.749568,0.187392,-0.562176,0.749568,0.187392,-0.562176,0.749568,0.187392,-0.562176,0.749568,0.187392,-0.562176,0.749568,0.187392,-0.562176,0.749568,0.187392,-0.562176,0.749568,0.187392,-0.562176,0.562176,0.187392,-0.562176,0.562176,0.187392,-0.562176,0.562176,0.187392,-0.562176,0.749568,0.187392,-0.562176,0.749568,0.187392,-0.749568,0.749568,0.187392,-0.562176,0.749568,0.187392,-0.562176,0.562176,0.187392,-0.562176,0.562176,0.187392,-0.562176,0.562176,0.187392,-0.374784,0.374784,0.187392,-0.374784,0.374784,0.187392,-0.562176,0.374784,0.187392,-0.562176,0.187392,0.187392,-0.562176,0.187392,0.187392,-0.749568,0.374784,0.187392,-0.749568,0.374784,0.187392,-0.749568,0.374784,0.374784,-0.749568,0.374784,0.187392,-0.749568,0.187392,0.187392,-0.749568,0.187392,0.187392,-0.749568,0.187392,0.187392,-0.749568,0,0.187392,-0.749568,0,0.187392,-0.749568,0,0.187392,-0.749568,0,0.187392,-0.93696,0,0.374784,-0.93696,0,0.374784,-0.93696,0,0.187392,-0.93696,-0.187392,0.187392,-0.93696,-0.187392,0.187392,-0.93696,-0.187392,0.187392,-0.93696,0,0.187392,-0.93696,0,0.374784,-0.93696,0,0.374784,-0.93696,-0.187392,0.374784,-0.93696,-0.187392,0.374784,-0.93696,-0.187392,0.374784,-0.93696,-0.187392,0.187392,-0.93696,-0.374784,0.374784,-0.93696,-0.374784,0.374784,-0.93696,-0.374784,0.374784,-1.124352,-0.374784,0.374784,-1.124352,-0.374784,0.562176,-1.124352,-0.374784,0.562176,-0.93696,-0.187392,0.562176,-0.93696,-0.374784,0.562176,-1.124352,-0.374784,0.562176,-0.93696,-0.374784,0.562176,-0.93696,-0.374784,0.562176,-0.93696,-0.374784,0.562176,-1.124352,-0.374784,0.562176,-1.124352,-0.374784,0.562176,-1.124352,-0.374784,0.562176,-0.93696,-0.374784,0.562176,-0.93696,-0.374784,0.562176,-0.93696,-0.374784,0.562176,-0.93696,-0.374784,0.562176,-0.93696,-0.374784,0.562176,-0.93696,-0.374784,0.562176,-0.93696,-0.374784,0.562176,-0.93696,-0.374784,0.562176,-0.93696,-0.562176,0.562176,-0.93696,-0.562176,0.562176,-0.93696,-0.562176,0.562176,-0.93696,-0.562176,0.562176,-0.93696,-0.562176,0.562176,-0.93696,-0.562176,0.749568,-1.124352,-0.562176,0.749568,-1.124352,-0.562176,0.749568,-1.124352,17.92,53.76,17.92,17.92,53.76,17.92,17.92,53.76,17.92,35.84,71.68,17.92,17.92,89.6,17.92,0,107.52,35.84,0,125.44,35.84,0,125.44,17.92,17.92,125.44,17.92,17.92,125.44,17.92,17.92,107.52,17.92,17.92,89.6,0,35.84,89.6,0,53.76,71.68,0,35.84,53.76,0,35.84,53.76,0,17.92,35.84,0,17.92,35.84,0,17.92,17.92,0,17.92,17.92,0
1728658359000,,-0.562176,0.749568,-1.124352,-0.562176,0.749568,-1.124352,-0.562176,0.749568,-1.124352,-0.562176,0.749568,-0.93696,-0.562176,0.562176,-0.93696,-0.562176,0.562176,-0.93696,-0.562176,0.562176,-1.124352,-0.562176,0.749568,-0.93696,-0.562176,0.749568,-0.93696,-0.562176,0.749568,-1.124352,-0.562176,0.749568,-0.93696,-0.562176,0.562176,-0.93696,-0.562176,0.562176,-0.93696,-0.562176,0.562176,-0.93696,-0.562176,0.562176,-0.93696,-0.562176,0.562176,-0.93696,-0.562176,0.562176,-0.93696,-0.374784,0.562176,-0.93696,-0.374784,0.562176,-0.93696,-0.374784,0.562176,-0.93696,-0.374784,0.562176,-0.93696,-0.374784,0.562176,-0.93696,-0.374784,0.562176,-0.93696,-0.374784,0.374784,-0.93696,-0.374784,0.374784,-0.93696,-0.374784,0.374784,-0.93696,-0.374784,0.374784,-0.93696,-0.374784,0.374784,-0.93696,-0.374784,0.374784,-0.93696,-0.187392,0.374784,-0.93696,-0.187392,0.374784,-0.93696,-0.187392,0.374784,-0.93696,-0.187392,0.374784,-0.93696,-0.187392,0.374784,-0.93696,-0.187392,0.374784,-0.93696,-0.187392,0.374784,-0.93696,-0.187392,0.187392,-0.93696,-0.187392,0.187392,-0.93696,-0.187392,0.187392,-0.93696,0,0.187392,-0.93696,0,0.187392,-0.93696,0,0.187392,-0.93696,0,0.187392,-0.93696,0,0.187392,-0.93696,0,0,-0.749568,0.187392,0,-0.749568,0.187392,0,-0.749568,0.187392,0,-0.749568,0.187392,0,-0.749568,0.187392,0,-0.749568,0.187392,0,-0.749568,0.187392,0,-0.749568,0.374784,0,-0.749568,0.374784,0,-0.749568,0.374784,0,-0.562176,0.374784,0,-0.562176,0.374784,0,-0.562176,0.562176,0,-0.562176,0.562176,0,-0.562176,0.562176,0,-0.562176,0.562176,0,-0.562176,0.562176,0,-0.562176,0.562176,0,-0.562176,0.562176,0,-0.562176,0.749568,0,-0.562176,0.749568,0,-0.562176,0.749568,0,-0.562176,0.749568,0,-0.562176,0.749568,0,-0.562176,0.749568,0,-0.562176,0.749568,0,-0.562176,0.749568,0,-0.562176,0.749568,0,-0.562176,0.749568,0,-0.562176,0.749568,0,-0.562176,0.749568,0,-0.562176,0.93696,0,-0.374784,0.93696,0,-0.374784,0.93696,0,-0.374784,0.93696,0,-0.374784,0,0,0,-17.92,0,0,-17.92,-17.92,0,-17.92,-35.84,0,-17.92,-53.76,0,-35.84,-53.76,0,-35.84,-71.68,0,-35.84,-89.6,-17.92,-35.84,-89.6,-17.92,-53.76,-107.52,-17.92,-35.84,-107.52,-17.92,-35.84,-125.44,-35.84,-17.92,-125.44,-35.84,-17.92,-125.44,-35.84,0,-125.44,-53.76,0,-125.44,-53.76,0,-107.52,-53.76,0,-89.6,-53.76,0,-71.68,-35.84,0,-71.68,-35.84
1728658360000,,0.93696,0,-0.374784,0.93696,0,-0.374784,0.93696,0,-0.374784,0.93696,0,-0.374784,0.93696,0,-0.374784,0.93696,0,-0.374784,0.93696,0,-0.374784,0.93696,0,-0.374784,0.93696,0,-0.374784,0.93696,0,-0.374784,0.93696,0,-0.374784,0.93696,0,-0.374784,0.93696,0,-0.374784,0.93696,0,-0.374784,0.93696,0,-0.374784,0.93696,0,-0.374784,0.93696,0,-0.374784,0.93696,0,-0.374784,0.93696,0,-0.374784,0.93696,0,-0.374784,0.93696,0,-0.374784,0.93696,0,-0.374784,0.93696,0,-0.374784,0.93696,0,-0.374784,0.93696,0,-0.374784,0.93696,0,-0.374784,0.93696,0,-0.374784,0.93696,0,-0.374784,0.93696,-0.187392,-0.374784,0.93696,0,-0.374784,0.93696,0,-0.374784,0.93696,0,-0.374784,0.93696,0,-0.374784,0.93696,0,-0.374784,0.93696,0,-0.374784,0.93696,0,-0.374784,0.93696,0,-0.374784,0.93696,0,-0.374784,0.93696,0,-0.374784,0.93696,0,-0.374784,0.93696,0,-0.374784,0.93696,-0.187392,-0.374784,0.93696,0,-0.374784,0.93696,0,-0.374784,0.93696,0,-0.374784,0.93696,0,-0.374784,0.93696,0,-0.374784,0.93696,0,-0.374784,0.93696,0,-0.374784,0.93696,0,-0.374784,0.93696,0,-0.374784,0.93696,0,-0.374784,0.93696,0,-0.374784,0.93696,0,-0.374784,0.93696,0,-0.374784,0.93696,0,-0.374784,0.93696,0,-0.374784,0.93696,0,-0.374784,0.93696,0,-0.374784,0.93696,0,-0.374784,0.93696,0,-0.374784,0.93696,0,-0.374784,0.93696,0,-0.374784,0.93696,0,-0.374784,0.93696,0,-0.374784,0.93696,0,-0.374784,0.93696,0,-0.374784,0.93696,0,-0.374784,0.93696,0,-0.374784,0.93696,0,-0.374784,0.93696,0,-0.374784,0.93696,0,-0.374784,0.93696,0,-0.374784,0.93696,0,-0.374784,0.93696,0,-0.374784,0.93696,0,-0.374784,0.93696,0,-0.374784,0.93696,0,-0.374784,0.93696,0,-0.374784,0.93696,0,-0.374784,0,-53.76,-35.84,0,-53.76,-35.84,0,-35.84,-17.92,0,-35.84,-17.92,-17.92,-17.92,-17.92,-17.92,-17.92,0,-17.92,-17.92,0,-17.92,0,0,-17.92,0,0,-17.92,0,0,-17.92,0,0,-17.92,0,17.92,-17.92,0,17.92,0,17.92,17.92,0,17.92,17.92,0,17.92,0,0,17.92,0,0,0,0,0,0,0,0,0,0
1728658361000,,0.93696,0,-0.374784,0.93696,0,-0.374784,0.93696,0,-0.374784,0.93696,0,-0.374784,0.93696,0,-0.374784,0.93696,0,-0.374784,0.93696,0,-0.374784,0.93696,0,-0.374784,0.93696,0,-0.374784,0.93696,0,-0.374784,0.93696,0,-0.374784,0.93696,0,-0.374784,0.93696,0,-0.374784,0.93696,0,-0.374784,0.93696,0,-0.562176,0.749568,0,-0.562176,0.749568,0,-0.562176,0.749568,0,-0.562176,0.93696,0,-0.374784,0.93696,0,-0.374784,0.93696,0,-0.374784,0.93696,0,-0.374784,0.93696,0,-0.374784,0.93696,0,-0.374784,0.93696,0,-0.374784,0.93696,0,-0.374784,0.93696,0,-0.374784,0.93696,0,-0.374784,0.93696,0,-0.374784,0.93696,0,-0.374784,0.93696,0,-0.374784,0.93696,0,-0.374784,0.93696,0,-0.374784,0.93696,0,-0.374784,0.93696,0,-0.374784,0.93696,0,-0.374784,0.93696,0,-0.374784,0.93696,0,-0.374784,0.93696,0,-0.374784,0.93696,0,-0.374784,0.93696,0,-0.374784,0.93696,0,-0.374784,0.93696,0,-0.374784,0.93696,0,-0.374784,0.93696,0,-0.374784,0.93696,0,-0.374784,0.93696,-0.187392,-0.374784,0.93696,-0.187392,-0.374784,0.93696,-0.187392,-0.374784,0.93696,-0.187392,-0.374784,0.93696,-0.187392,-0.374784,0.93696,-0.187392,-0.374784,0.93696,-0.187392,-0.374784,0.93696,-0.187392,-0.374784,0.93696,-0.187392,-0.374784,0.93696,-0.187392,-0.374784,0.93696,-0.187392,-0.374784,0.93696,-0.187392,-0.374784,0.93696,-0.187392,-0.374784,0.93696,-0.187392,-0.374784,0.93696,-0.187392,-0.374784,0.93696,-0.187392,-0.374784,0.93696,-0.187392,-0.374784,0.93696,-0.187392,-0.374784,0.93696,-0.187392,-0.374784,0.93696,-0.187392,-0.374784,0.93696,-0.187392,-0.374784,0.93696,-0.187392,-0.374784,0.93696,-0.187392,-0.374784,0.93696,0,-0.374784,0.93696,0,-0.374784,0.93696,0,-0.374784,0.93696,0,-0.374784,0.93696,0,-0.374784,0.93696,0,-0.374784,0.93696,0,-0.374784,0.93696,0,-0.374784,0.93696,0,-0.374784,0.93696,0,-0.374784,0.93696,0,-0.374784,17.92,17.92,0,0,17.92,0,0,17.92,0,0,0,0,0,0,0,0,0,0,0,0,0,-17.92,0,0,-17.92,0,0,-17.92,0,0,0,0,0,0,0,0,0,0,0,0,0,0,0,0,0,17.92,0,-17.92,35.84,0,-17.92,53.76,0,-17.92,53.76,0,-17.92,71.68,0,-17.92
1728658362000,,0.93696,0,-0.374784,0.93696,0,-0.374784,0.93696,0,-0.374784,0.93696,0,-0.374784,0.93696,0,-0.374784,0.93696,0,-0.374784,0.93696,0,-0.374784,0.93696,0,-0.374784,0.93696,0,-0.374784,0.93696,0,-0.374784,0.93696,0.187392,-0.374784,0.93696,0,-0.374784,0.93696,0,-0.374784,0.93696,0,-0.374784,0.93696,0,-0.374784,0.93696,0,-0.374784,0.93696,0,-0.374784,0.93696,0,-0.374784,0.93696,0,-0.374784,0.93696,0,-0.374784,0.93696,0,-0.374784,0.93696,0,-0.374784,0.93696,0,-0.374784,0.93696,0,-0.374784,0.93696,0,-0.374784,0.93696,0,-0.374784,0.93696,0,-0.374784,0.93696,0,-0.374784,0.93696,0,-0.374784,0.93696,0,-0.374784,0.93696,0,-0.374784,0.93696,0,-0.374784,0.93696,0,-0.374784,0.93696,0,-0.374784,0.93696,0,-0.374784,0.93696,0,-0.374784,0.93696,0,-0.374784,0.93696,0,-0.374784,0.93696,0,-0.374784,0.93696,0,-0.374784,0.93696,0,-0.374784,0.93696,0,-0.374784,0.93696,0,-0.374784,0.93696,-0.187392,-0.374784,0.93696,-0.187392,-0.374784,0.93696,-0.187392,-0.374784,0.93696,-0.187392,-0.374784,0.93696,-0.187392,-0.374784,0.93696,-0.187392,-0.374784,0.93696,-0.374784,-0.374784,1.124352,-0.374784,-0.374784,1.124352,-0.187392,-0.374784,1.124352,-0.187392,-0.374784,1.124352,-0.187392,-0.374784,0.93696,-0.187392,-0.374784,0.93696,-0.187392,-0.374784,0.93696,-0.187392,-0.374784,0.93696,-0.187392,-0.374784,0.93696,-0.187392,-0.374784,0.93696,-0.187392,-0.374784,0.93696,-0.187392,-0.374784,0.93696,-0.187392,-0.187392,0.93696,-0.187392,-0.187392,0.93696,-0.187392,-0.187392,0.93696,-0.187392,-0.187392,0.93696,-0.187392,-0.187392,0.93696,-0.187392,-0.187392,0.93696,-0.187392,-0.187392,0.93696,-0.187392,-0.187392,0.93696,-0.187392,-0.187392,0.93696,-0.187392,-0.187392,0.93696,-0.187392,-0.187392,0.93696,-0.187392,-0.187392,0.93696,-0.187392,-0.187392,0.93696,0,-0.187392,0.93696,0,-0.187392,0.93696,0,-0.187392,0.93696,0,-0.187392,0.93696,0,-0.187392,0.93696,0,-0.187392,53.76,0,-17.92,53.76,-17.92,-17.92,53.76,-17.92,-35.84,53.76,-17.92,-35.84,53.76,-17.92,-35.84,35.84,-17.92,-35.84,53.76,-17.92,-35.84,53.76,0,-35.84,71.68,0,-17.92,71.68,0,-17.92,71.68,-17.92,-17.92,71.68,-17.92,-17.92,89.6,-17.92,-17.92,89.6,0,-17.92,89.6,-17.92,-17.92,107.52,-17.92,-17.92,107.52,0,-17.92,107.52,0,-35.84,107.52,0,-35.84,107.52,17.92,-35.84
1728658363000,,0.93696,0,-0.187392,0.93696,0,-0.187392,0.93696,0,-0.187392,0.93696,0,-0.187392,0.93696,0,-0.187392,0.93696,0,-0.187392,0.93696,0,-0.187392,0.93696,0,-0.187392,0.93696,0,-0.187392,0.93696,0,-0.187392,0.93696,0,-0.187392,0.93696,0,-0.187392,0.93696,0,-0.187392,0.93696,0,-0.187392,0.93696,0,-0.187392,0.93696,0,-0.187392,0.93696,0,-0.187392,0.93696,0,-0.187392,0.93696,0,-0.187392,0.93696,0,-0.374784,0.93696,0,-0.374784,0.93696,0,-0.374784,0.93696,0,-0.374784,0.93696,0,-0.374784,0.93696,0,-0.374784,0.93696,0,-0.374784,0.93696,0,-0.374784,0.93696,0,-0.374784,0.93696,0,-0.374784,0.93696,0,-0.374784,1.124352,0,-0.562176,1.311744,0,-0.374784,1.311744,0.187392,-0.374784,1.124352,0.187392,-0.374784,1.124352,0.187392,-0.374784,1.124352,0.187392,-0.374784,0.93696,0.187392,-0.374784,0.93696,0.187392,-0.562176,0.93696,0.187392,-0.562176,0.93696,0,-0.374784,0.93696,0,-0.374784,0.93696,0,-0.374784,0.93696,0,-0.374784,0.93696,0,-0.374784,0.93696,0,-0.374784,0.93696,0.187392,-0.374784,0.93696,0.187392,-0.374784,0.93696,0.187392,-0.374784,0.93696,0.187392,-0.374784,0.93696,0.187392,-0.374784,0.93696,0.187392,-0.374784,0.93696,0.187392,-0.374784,0.93696,0.187392,-0.374784,0.93696,0,-0.374784,0.749568,0,-0.374784,0.749568,0,-0.374784,0.749568,0,-0.374784,0.749568,0,-0.374784,0.93696,0,-0.374784,0.93696,0,-0.374784,0.93696,0,-0.374784,0.749568,0,-0.374784,0.749568,0,-0.374784,0.749568,0,-0.374784,0.749568,0,-0.374784,0.749568,0,-0.374784,0.749568,0,-0.374784,0.749568,0,-0.374784,0.749568,0,-0.374784,0.749568,0,-0.374784,0.749568,0,-0.374784,0.749568,0.187392,-0.374784,0.749568,0,-0.374784,0.749568,0.187392,-0.374784,0.749568,0,-0.374784,0.749568,0,-0.374784,0.749568,0,-0.374784,0.749568,0,-0.374784,0.749568,0,-0.374784,0.749568,0,-0.374784,89.6,17.92,-35.84,89.6,17.92,-35.84,89.6,17.92,-35.84,89.6,0,-17.92,71.68,0,-17.92,71.68,0,-17.92,71.68,0,-17.92,53.76,-17.92,-17.92,35.84,-17.92,-17.92,17.92,-17.92,0,17.92,-17.92,0,35.84,0,-17.92,35.84,17.92,-17.92,17.92,17.92,-17.92,35.84,17.92,-17.92,17.92,17.92,-17.92,17.92,17.92,-17.92,17.92,17.92,-17.92,0,0,0,0,0,0
1728658364000,,0.93696,0,-0.374784,0.93696,0,-0.374784,0.93696,0,-0.374784,0.93696,0,-0.374784,0.93696,0,-0.374784,0.93696,0,-0.374784,0.93696,0,-0.374784,0.93696,0,-0.374784,0.93696,0,-0.374784,0.93696,0,-0.374784,0.749568,0,-0.374784,0.749568,0,-0.374784,0.749568,0,-0.374784,0.93696,0.187392,-0.562176,1.124352,0,-0.562176,1.124352,0,-0.562176,1.124352,0,-0.562176,1.124352,-0.187392,-0.562176,1.124352,-0.187392,-0.562176,1.124352,-0.187392,-0.562176,0.93696,-0.187392,-0.562176,0.93696,-0.187392,-0.562176,0.93696,-0.187392,-0.562176,0.93696,0,-0.562176,0.93696,0,-0.562176,0.93696,0,-0.562176,0.93696,0,-0.562176,0.93696,-0.187392,-0.562176,0.93696,-0.187392,-0.374784,0.93696,-0.187392,-0.374784,0.93696,-0.187392,-0.374784,0.93696,-0.187392,-0.374784,0.93696,-0.187392,-0.374784,0.93696,-0.187392,-0.374784,0.749568,-0.187392,-0.374784,0.93696,-0.187392,-0.374784,0.93696,-0.187392,-0.374784,0.93696,-0.187392,-0.374784,0.93696,-0.187392,-0.374784,0.749568,-0.187392,-0.374784,0.749568,0,-0.374784,0.93696,0,-0.374784,0.93696,0,-0.374784,0.93696,-0.187392,-0.374784,0.93696,-0.187392,-0.374784,0.93696,-0.187392,-0.374784,0.749568,-0.187392,-0.187392,0.93696,-0.187392,-0.187392,0.93696,-0.187392,-0.187392,0.93696,-0.187392,-0.187392,0.93696,-0.187392,-0.187392,0.93696,-0.187392,-0.187392,0.749568,-0.187392,-0.187392,0.749568,-0.187392,-0.187392,0.749568,-0.187392,-0.187392,0.749568,-0.187392,-0.187392,0.93696,-0.187392,-0.187392,0.93696,-0.187392,-0.187392,0.93696,-0.187392,-0.187392,0.93696,-0.187392,-0.374784,0.93696,-0.187392,-0.374784,0.93696,-0.187392,-0.374784,0.93696,-0.187392,-0.374784,0.93696,-0.187392,-0.374784,0.749568,-0.187392,-0.187392,0.749568,-0.187392,-0.187392,0.749568,-0.187392,-0.187392,0.749568,-0.187392,-0.187392,0.749568,-0.187392,-0.187392,0.749568,-0.187392,-0.187392,0.749568,-0.187392,-0.187392,0.749568,-0.187392,-0.187392,0.749568,-0.187392,-0.187392,0.749568,-0.187392,-0.562176,1.311744,-0.187392,-0.749568,2.061312,0,-0.562176,1.87392,0.187392,-0.374784,1.311744,0.187392,-0.374784,1.124352,0.374784,-0.374784,1.311744,0.187392,-0.562176,-17.92,0,0,0,-17.92,0,-17.92,-17.92,-17.92,-17.92,-17.92,0,-17.92,-35.84,17.92,0,-17.92,0,-17.92,-17.92,0,0,0,17.92,0,0,0,17.92,-17.92,0,17.92,0,0,17.92,0,0,17.92,0,0,17.92,17.92,0,17.92,0,0,17.92,0,0,17.92,0,0,17.92,-17.92,-17.92,17.92,-35.84,-17.92,53.76,-35.84,-17.92
1728658365000,,1.311744,0.187392,-0.374784,1.124352,0.187392,-0.374784,1.311744,0.187392,-0.374784,1.311744,0.187392,-0.562176,1.124352,0,-0.374784,1.124352,0.187392,-0.374784,0.93696,0.187392,-0.374784,0.93696,0,-0.374784,0.93696,0.187392,-0.374784,0.749568,0,-0.374784,0.93696,0,-0.374784,0.93696,0,-0.374784,0.93696,0,-0.374784,0.93696,0,-0.374784,0.93696,0.187392,-0.374784,0.93696,0.187392,-0.374784,0.749568,0.187392,-0.374784,0.749568,0.187392,-0.374784,0.749568,0.187392,-0.374784,0.749568,0.187392,-0.374784,0.749568,0,-0.374784,0.749568,0,-0.374784,0.749568,0,-0.374784,0.749568,0,-0.374784,0.749568,0,-0.374784,0.749568,0,-0.374784,0.749568,0,-0.374784,0.749568,0,-0.374784,0.749568,0,-0.374784,0.749568,0,-0.374784,0.749568,0,-0.374784,0.749568,0,-0.374784,0.749568,0,-0.374784,0.749568,0,-0.374784,0.749568,0,-0.374784,0.749568,0,-0.374784,0.749568,0,-0.374784,0.749568,0,-0.374784,0.749568,0,-0.374784,0.93696,0,-0.374784,0.93696,0,-0.374784,0.93696,0,-0.187392,0.93696,0,-0.187392,0.93696,0,-0.187392,0.93696,0,-0.187392,0.749568,0,-0.187392,0.749568,0.187392,-0.187392,0.749568,0.187392,-0.187392,0.93696,0.187392,-0.187392,0.93696,0.187392,-0.187392,1.124352,0.187392,-0.374784,1.311744,0,-0.374784,1.311744,-0.187392,-0.374784,1.311744,-0.374784,-0.374784,1.311744,-0.374784,-0.187392,1.311744,-0.187392,-0.187392,1.311744,-0.187392,-0.374784,1.311744,-0.187392,-0.374784,1.311744,0,-0.374784,1.311744,0,-0.374784,1.311744,0,-0.374784,1.124352,-0.187392,-0.187392,1.124352,-0.187392,-0.187392,1.124352,-0.187392,-0.187392,0.93696,0,-0.187392,0.93696,0,-0.187392,0.93696,0,-0.187392,0.93696,0,-0.187392,0.93696,0,-0.187392,0.93696,0,-0.187392,0.93696,0,-0.187392,0.93696,0,-0.187392,0.93696,0,-0.187392,0.93696,0,-0.187392,0.93696,0,-0.187392,0.93696,0,-0.187392,0.93696,0,-0.187392,0.93696,0,-0.187392,0.93696,0,-0.187392,0.93696,0,-0.187392,17.92,0,0,0,35.84,-17.92,0,35.84,0,0,35.84,0,0,35.84,0,-17.92,17.92,0,-17.92,17.92,0,-17.92,0,0,-17.92,0,0,0,-17.92,0,0,-35.84,0,0,-35.84,0,0,-71.68,17.92,0,-71.68,17.92,0,-53.76,17.92,17.92,0,17.92,17.92,0,17.92,17.92,0,17.92,35.84,17.92,17.92,35.84,17.92,0
1728658366000,,0.93696,0,-0.187392,0.93696,0,-0.187392,0.93696,0,-0.187392,0.93696,0,-0.187392,0.93696,0,-0.187392,0.93696,0,-0.187392,0.93696,0,-0.187392,0.93696,0,-0.187392,0.93696,0,-0.187392,0.93696,0,-0.187392,0.93696,0,-0.187392,0.93696,0,-0.187392,0.93696,0,-0.187392,0.93696,0,-0.187392,0.93696,0,-0.187392,0.93696,0,-0.187392,0.93696,0,-0.187392,0.93696,0,-0.187392,0.93696,0,-0.187392,0.93696,0,-0.187392,0.93696,0,-0.187392,0.93696,0,-0.187392,0.93696,0,-0.187392,0.93696,0,-0.187392,0.93696,0,-0.187392,0.93696,0,-0.187392,0.93696,0,-0.187392,0.93696,0,-0.187392,1.124352,0,-0.187392,1.124352,0,-0.187392,1.124352,0,-0.187392,1.124352,0.187392,-0.187392,1.124352,0.187392,-0.187392,1.124352,0.187392,-0.187392,1.124352,0.187392,-0.187392,1.124352,0.187392,-0.187392,1.124352,0.187392,-0.187392,0.93696,0,-0.187392,0.93696,0,-0.187392,0.93696,0,-0.187392,0.93696,0,-0.187392,0.93696,0,-0.187392,0.93696,0.187392,-0.374784,0.93696,0.187392,-0.187392,0.93696,0,-0.187392,0.93696,0,-0.187392,0.93696,0,-0.187392,0.93696,0.187392,-0.187392,0.93696,0.187392,-0.374784,0.93696,0.187392,-0.374784,0.93696,0.187392,-0.374784,0.93696,0.187392,-0.374784,0.93696,0.187392,-0.374784,0.93696,0.187392,-0.374784,0.93696,0.187392,-0.187392,0.93696,0.187392,-0.374784,0.93696,0.187392,-0.374784,0.93696,0.187392,-0.374784,0.93696,0.187392,-0.187392,0.93696,0.187392,-0.187392,0.93696,0.187392,-0.374784,0.93696,0.187392,-0.374784,0.93696,0.187392,-0.374784,0.93696,0.187392,-0.374784,0.93696,0.187392,-0.187392,0.93696,0.187392,-0.187392,0.93696,0.187392,-0.187392,0.93696,0.187392,-0.374784,0.93696,0.187392,-0.374784,0.93696,0.187392,-0.374784,0.93696,0.187392,-0.187392,0.93696,0.187392,-0.374784,0.93696,0.187392,-0.374784,0.93696,0.187392,-0.374784,0.93696,0.187392,-0.374784,0.93696,0.187392,-0.374784,0.93696,0.187392,-0.374784,0.93696,0.187392,-0.374784,0.93696,0.187392,-0.374784,0.93696,0.187392,-0.187392,53.76,35.84,0,53.76,35.84,-17.92,53.76,17.92,-17.92,53.76,17.92,-17.92,35.84,17.92,-17.92,35.84,0,-17.92,35.84,0,-17.92,35.84,0,-17.92,17.92,-17.92,0,0,0,0,0,0,-17.92,0,0,-17.92,17.92,17.92,0,17.92,17.92,0,0,17.92,0,0,17.92,0,0,17.92,0,0,17.92,0,0,17.92,0,0,17.92,0
1728658367000,,0.93696,0.187392,-0.187392,0.93696,0.187392,-0.187392,0.93696,0.187392,-0.187392,0.93696,0.187392,-0.187392,0.93696,0.187392,-0.187392,0.749568,0.187392,-0.187392,0.749568,0.187392,-0.187392,0.93696,0.187392,-0.187392,0.93696,0.187392,-0.187392,0.93696,0.187392,-0.187392,0.93696,0.187392,-0.187392,0.93696,0.187392,-0.187392,0.93696,0,-0.187392,0.93696,0,-0.187392,0.93696,0,-0.187392,0.93696,0,-0.187392,0.93696,0,-0.187392,0.93696,0,-0.187392,0.93696,0,-0.187392,0.93696,0,-0.187392,0.93696,0,-0.187392,0.93696,0,-0.187392,0.93696,0,-0.187392,0.93696,0,-0.187392,0.93696,0,-0.187392,1.124352,0,-0.374784,1.311744,0,-0.374784,1.311744,0,-0.374784,1.311744,-0.187392,-0.374784,1.311744,0,-0.374784,1.124352,0,-0.374784,1.124352,0,-0.374784,1.124352,0,-0.374784,0.93696,0,-0.374784,0.93696,0,-0.374784,0.93696,0,-0.374784,0.93696,0,-0.374784,0.93696,0,-0.374784,0.93696,0,-0.374784,0.93696,-0.187392,-0.374784,0.93696,-0.187392,-0.374784,0.93696,-0.187392,-0.374784,0.749568,-0.187392,-0.374784,0.93696,-0.187392,-0.374784,0.93696,-0.187392,-0.374784,0.93696,-0.187392,-0.374784,0.749568,-0.187392,-0.374784,0.749568,-0.187392,-0.374784,0.749568,-0.187392,-0.374784,0.749568,-0.187392,-0.374784,0.93696,-0.187392,-0.374784,0.93696,-0.187392,-0.374784,0.93696,0,-0.374784,0.93696,-0.187392,-0.374784,0.93696,-0.187392,-0.374784,0.93696,0,-0.374784,0.93696,0,-0.374784,0.93696,0,-0.374784,0.93696,0,-0.374784,0.93696,-0.187392,-0.374784,0.93696,0,-0.374784,0.93696,0,-0.374784,0.93696,0,-0.374784,0.93696,0,-0.187392,0.93696,-0.187392,-0.187392,0.93696,-0.187392,-0.187392,0.93696,-0.187392,-0.187392,0.93696,-0.187392,-0.187392,0.93696,-0.187392,-0.187392,0.93696,-0.187392,-0.187392,0.93696,0,-0.187392,0.93696,0,-0.187392,0.93696,0,-0.187392,0.93696,-0.187392,-0.187392,0.93696,-0.187392,-0.187392,0.93696,-0.187392,-0.187392,0.93696,-0.187392,-0.187392,0.93696,-0.187392,-0.187392,0.93696,-0.187392,-0.187392,0.93696,0,-0.187392,0,17.92,0,-17.92,0,0,-17.92,0,0,-17.92,0,0,-17.92,0,0,-17.92,-17.92,0,0,-17.92,0,17.92,-17.92,0,0,0,0,-17.92,0,0,0,0,0,17.92,0,0,17.92,0,-17.92,35.84,0,-17.92,35.84,0,-17.92,35.84,17.92,-17.92,53.76,17.92,-17.92,53.76,17.92,-17.92,53.76,17.92,-17.92,53.76,0,-17.92
1728658368000,,0.93696,-0.187392,-0.187392,0.93696,-0.187392,-0.187392,0.93696,-0.187392,-0.187392,0.93696,-0.187392,-0.187392,0.93696,-0.187392,-0.187392,0.93696,-0.187392,-0.187392,0.93696,-0.187392,-0.187392,0.93696,-0.187392,-0.187392,0.93696,-0.187392,-0.187392,0.93696,-0.187392,-0.187392,0.93696,-0.187392,-0.187392,0.93696,-0.187392,-0.187392,0.93696,-0.187392,-0.374784,1.311744,-0.187392,-0.562176,1.499136,0,-0.374784,1.311744,0,-0.374784,1.311744,0,-0.374784,1.124352,0.187392,-0.374784,1.124352,0.374784,-0.374784,1.124352,0.374784,-0.562176,1.124352,0.187392,-0.562176,0.93696,0.187392,-0.374784,1.124352,0.187392,-0.374784,0.93696,0.187392,-0.374784,0.93696,0.187392,-0.374784,0.93696,0.187392,-0.374784,0.93696,0,-0.374784,0.93696,0,-0.374784,0.749568,0.187392,-0.374784,0.749568,0.187392,-0.374784,0.749568,0,-0.374784,0.749568,0.187392,-0.374784,0.749568,0.187392,-0.374784,0.749568,0.187392,-0.374784,0.749568,0.187392,-0.374784,0.749568,0.187392,-0.374784,0.749568,0.187392,-0.374784,0.749568,0.187392,-0.374784,0.749568,0,-0.374784,0.749568,0,-0.374784,0.749568,0,-0.374784,0.749568,0.187392,-0.562176,0.749568,0.187392,-0.562176,0.749568,0.187392,-0.562176,0.749568,0.187392,-0.562176,0.749568,0.187392,-0.562176,0.749568,0.187392,-0.562176,0.749568,0.187392,-0.562176,0.749568,0.187392,-0.562176,0.93696,0.187392,-0.562176,0.749568,0.187392,-0.562176,0.749568,0.187392,-0.562176,0.749568,0.187392,-0.562176,0.749568,0.187392,-0.562176,0.749568,0.187392,-0.562176,0.749568,0.187392,-0.562176,0.749568,0.187392,-0.562176,0.749568,0.187392,-0.562176,0.749568,0.187392,-0.562176,0.93696,0.187392,-0.562176,0.749568,0.187392,-0.562176,0.749568,0.187392,-0.562176,0.749568,0,-0.562176,0.93696,0,-0.562176,0.93696,0,-0.562176,0.749568,0,-0.562176,0.749568,0,-0.562176,0.749568,0,-0.562176,0.749568,0,-0.562176,0.749568,0,-0.562176,0.749568,0,-0.562176,0.93696,0,-0.562176,0.93696,0,-0.562176,0.93696,0,-0.562176,0.93696,0,-0.562176,0.93696,0,-0.562176,0.93696,0,-0.562176,0.93696,0,-0.562176,0.93696,0,-0.562176,0.93696,0,-0.562176,53.76,0,-17.92,53.76,0,-17.92,53.76,0,-17.92,53.76,0,-35.84,35.84,0,-35.84,17.92,0,0,0,17.92,0,17.92,17.92,0,17.92,17.92,0,17.92,17.92,0,17.92,17.92,0,17.92,17.92,0,17.92,17.92,0,0,0,0,0,0,0,0,0,0,0,0,0,0,0,0,0,0,17.92,0,0,17.92
1728658369000,,0.93696,0,-0.562176,0.93696,0,-0.562176,0.93696,0,-0.562176,0.93696,0,-0.562176,0.93696,0,-0.562176,0.93696,0,-0.562176,0.93696,0,-0.562176,0.93696,0,-0.562176,0.93696,0,-0.562176,0.93696,0,-0.562176,0.749568,0,-0.562176,0.93696,0,-0.562176,0.93696,0,-0.562176,0.93696,0,-0.562176,0.93696,0,-0.562176,0.93696,0,-0.562176,0.93696,0,-0.562176,0.93696,0,-0.562176,0.93696,0,-0.374784,0.93696,0,-0.562176,0.93696,0,-0.562176,0.93696,0,-0.562176,0.93696,0,-0.562176,0.93696,0,-0.562176,0.93696,0,-0.562176,0.93696,0,-0.562176,0.93696,0,-0.562176,0.93696,0,-0.374784,0.93696,0,-0.374784,0.93696,0,-0.562176,0.93696,0,-0.374784,0.93696,0,-0.562176,0.93696,0,-0.562176,0.93696,0,-0.562176,0.93696,0,-0.374784,0.93696,0,-0.374784,0.93696,0,-0.374784,0.93696,0,-0.374784,0.93696,0,-0.562176,0.93696,0,-0.374784,0.93696,0,-0.374784,0.93696,0,-0.562176,0.93696,0,-0.374784,0.93696,0,-0.374784,0.93696,0,-0.562176,0.93696,0,-0.374784,0.93696,0,-0.562176,0.93696,0,-0.562176,0.93696,0,-0.562176,0.93696,0,-0.374784,0.93696,0,-0.374784,0.93696,0,-0.374784,0.93696,0,-0.374784,0.93696,0,-0.374784,0.93696,0,-0.562176,0.93696,0,-0.374784,0.93696,0,-0.374784,0.93696,0,-0.374784,0.93696,0,-0.562176,0.93696,0,-0.374784,0.93696,0,-0.374784,0.93696,0,-0.562176,0.93696,0,-0.562176,0.93696,0,-0.374784,0.93696,0,-0.562176,0.93696,0,-0.562176,0.93696,0,-0.562176,0.93696,0,-0.374784,0.93696,0,-0.562176,0.93696,0,-0.374784,0.93696,0,-0.374784,0.93696,0,-0.562176,0.93696,0,-0.562176,0.93696,0,-0.562176,0.93696,0,-0.562176,0.93696,0,-0.562176,0.93696,0,-0.562176,0.93696,0,-0.374784,0.93696,0,-0.374784,0.93696,0,-0.374784,-17.92,0,0,-17.92,0,0,0,0,0,0,0,0,0,0,0,0,0,0,0,0,0,0,0,0,0,0,0,0,0,0,0,0,0,0,0,0,0,0,0,0,0,0,0,0,0,0,0,0,0,0,0,0,0,0,0,0,0,0,0,0
1728658370000,,0.93696,0,-0.374784,0.93696,0,-0.374784,0.93696,0,-0.562176,0.93696,0,-0.374784,0.93696,0,-0.374784,0.93696,0,-0.374784,0.93696,0,-0.562176,0.93696,0,-0.374784,0.93696,0,-0.374784,0.93696,0,-0.374784,0.93696,0,-0.374784,0.93696,0,-0.374784,0.93696,0,-0.374784,0.93696,0,-0.374784,0.93696,0,-0.374784,0.93696,0,-0.374784,0.93696,0,-0.374784,0.93696,0,-0.374784,0.93696,0,-0.374784,0.93696,0,-0.374784,0.93696,0,-0.374784,0.93696,0,-0.374784,0.93696,0,-0.374784,0.93696,0,-0.374784,0.93696,0,-0.374784,0.93696,0,-0.374784,0.93696,0,-0.374784,0.93696,0,-0.374784,0.93696,0,-0.374784,0.93696,0,-0.374784,0.93696,0,-0.374784,0.93696,0,-0.374784,0.93696,0,-0.374784,0.93696,0,-0.374784,0.93696,0,-0.374784,0.93696,0,-0.374784,0.93696,0,-0.374784,0.93696,0,-0.374784,0.93696,0,-0.374784,0.93696,0,-0.374784,0.93696,0,-0.374784,0.93696,0,-0.374784,0.93696,0,-0.374784,0.93696,0,-0.374784,0.93696,0,-0.374784,0.93696,0,-0.374784,0.93696,0,-0.374784,0.93696,0,-0.374784,0.93696,0,-0.374784,0.93696,0,-0.374784,0.93696,0,-0.374784,0.93696,0,-0.374784,0.93696,0,-0.374784,0.93696,0,-0.374784,0.93696,0,-0.374784,0.93696,0,-0.374784,0.93696,0,-0.374784,0.93696,0,-0.374784,0.93696,0,-0.374784,0.93696,0,-0.374784,0.93696,0,-0.374784,0.93696,0,-0.374784,0.93696,0,-0.374784,0.93696,0,-0.374784,0.93696,0,-0.374784,0.93696,0,-0.374784,0.93696,0,-0.374784,0.93696,0,-0.374784,0.93696,0,-0.374784,0.93696,0,-0.374784,0.93696,0,-0.374784,0.93696,0,-0.374784,0.93696,0,-0.374784,0.93696,0,-0.374784,0.93696,0,-0.374784,0.93696,0,-0.374784,0.93696,0,-0.374784,0.93696,0,-0.374784,0.93696,0,-0.374784,0.93696,0,-0.374784,0,0,0,0,0,0,0,0,0,-17.92,0,0,0,0,0,0,0,0,0,0,0,-17.92,0,0,-17.92,0,0,-17.92,0,0,-17.92,0,0,-17.92,0,0,-17.92,0,0,-17.92,0,0,-17.92,0,0,0,0,0,0,0,0,0,0,0,0,0,0,0,0,0
1728658371000,,0.93696,0,-0.374784,0.93696,0,-0.374784,0.93696,0,-0.374784,0.93696,0,-0.374784,0.93696,0,-0.374784,0.93696,0,-0.374784,0.93696,0,-0.374784,0.93696,0,-0.374784,0.93696,0,-0.374784,0.93696,0,-0.374784,0.93696,0,-0.374784,0.93696,0,-0.374784,0.93696,0,-0.374784,0.93696,0,-0.374784,0.93696,0,-0.374784,0.93696,0,-0.374784,0.93696,0,-0.374784,0.93696,0,-0.374784,0.93696,0,-0.374784,0.93696,0,-0.374784,0.93696,0,-0.374784,0.93696,0,-0.374784,0.93696,0,-0.374784,0.93696,0,-0.374784,0.93696,0,-0.374784,0.93696,0,-0.374784,0.93696,0,-0.374784,0.93696,0,-0.374784,0.93696,0,-0.374784,0.93696,0,-0.374784,0.93696,0,-0.374784,0.93696,0,-0.374784,0.93696,0,-0.374784,0.93696,0,-0.374784,0.93696,0,-0.374784,0.93696,0,-0.374784,0.93696,0,-0.374784,0.93696,0,-0.374784,0.93696,0,-0.374784,0.93696,0,-0.374784,0.93696,0,-0.374784,0.93696,0,-0.374784,0.93696,0,-0.374784,0.93696,0,-0.374784,0.93696,0,-0.374784,0.93696,0,-0.374784,0.93696,0,-0.374784,0.93696,0,-0.374784,0.93696,0,-0.374784,0.93696,0,-0.374784,0.93696,0,-0.374784,0.93696,0,-0.374784,0.93696,0,-0.374784,0.93696,0,-0.374784,0.93696,0,-0.374784,0.93696,0,-0.374784,0.93696,0,-0.374784,0.93696,0,-0.374784,0.93696,0,-0.374784,0.93696,0,-0.374784,0.93696,0,-0.374784,0.93696,0,-0.374784,0.93696,0,-0.562176,0.93696,0,-0.374784,0.93696,0,-0.374784,0.93696,0,-0.562176,0.93696,0,-0.562176,0.93696,0,-0.562176,0.93696,0,-0.562176,0.93696,0,-0.562176,0.749568,0,-0.562176,0.749568,0,-0.562176,0.749568,0,-0.562176,0.749568,0,-0.562176,0.749568,0,-0.562176,0.749568,0,-0.562176,0.749568,0,-0.562176,0.749568,0,-0.562176,0.749568,0,-0.562176,0.749568,0,-0.562176,0,0,0,0,0,0,0,0,0,-17.92,0,0,-17.92,0,0,-17.92,0,17.92,-17.92,0,17.92,-17.92,0,0,-17.92,0,0,-17.92,0,0,-17.92,17.92,0,-17.92,0,0,0,17.92,0,0,17.92,0,0,17.92,0,17.92,17.92,0,17.92,17.92,0,0,17.92,0,17.92,17.92,0,0,17.92,0
1728658372000,,0.749568,0,-0.562176,0.749568,0,-0.562176,0.749568,0,-0.562176,0.749568,0,-0.562176,0.749568,0,-0.562176,0.749568,0,-0.562176,0.749568,0,-0.562176,0.749568,0,-0.562176,0.749568,0,-0.562176,0.749568,0,-0.562176,0.749568,0,-0.562176,0.93696,0,-0.562176,0.749568,0,-0.562176,0.749568,0,-0.562176,0.749568,0,-0.562176,0.749568,0,-0.562176,0.749568,0,-0.562176,0.749568,0,-0.562176,0.749568,0,-0.562176,0.749568,0,-0.562176,0.93696,0,-0.562176,0.93696,0,-0.562176,0.93696,0,-0.562176,0.93696,0,-0.562176,0.93696,0,-0.562176,0.749568,0,-0.562176,0.749568,0,-0.562176,0.749568,0,-0.562176,0.749568,0,-0.562176,0.749568,0,-0.562176,0.93696,0,-0.562176,0.749568,0,-0.562176,0.749568,0,-0.562176,0.749568,0,-0.562176,0.93696,0,-0.374784,0.93696,0,-0.562176,0.93696,0,-0.562176,0.93696,0,-0.374784,0.93696,0,-0.374784,0.749568,0,-0.374784,0.93696,0,-0.374784,0.93696,0,-0.374784,0.93696,0,-0.374784,0.93696,0,-0.374784,0.93696,0,-0.374784,0.93696,0,-0.374784,0.93696,0,-0.374784,0.93696,0,-0.374784,0.93696,0,-0.374784,0.93696,0,-0.374784,0.93696,0,-0.374784,0.93696,0,-0.374784,0.93696,0,-0.374784,0.93696,0,-0.374784,0.93696,0,-0.374784,0.93696,0,-0.374784,0.93696,0,-0.374784,0.93696,0,-0.374784,0.93696,0,-0.374784,0.93696,0,-0.374784,0.93696,0,-0.374784,0.93696,0,-0.374784,0.93696,0,-0.374784,0.93696,0,-0.374784,0.93696,0,-0.374784,0.93696,0,-0.374784,0.93696,0,-0.374784,0.93696,0,-0.374784,0.93696,0,-0.374784,0.93696,0,-0.374784,0.93696,0,-0.374784,0.93696,0,-0.374784,0.93696,0,-0.374784,0.93696,0,-0.374784,0.93696,0,-0.374784,0.93696,0,-0.374784,0.93696,0,-0.374784,0.93696,0,-0.374784,0.93696,0,-0.374784,0.93696,0,-0.374784,0,17.92,0,-17.92,0,0,-17.92,0,0,-17.92,0,17.92,-17.92,-17.92,0,-17.92,-17.92,0,0,0,0,0,-17.92,0,0,-17.92,0,0,-17.92,0,-17.92,-17.92,0,-17.92,-17.92,0,-17.92,0,0,-17.92,-17.92,0,0,0,0,0,0,0,0,0,0,0,0,0,0,0,0,0,0,0
1728658373000,,0.93696,0,-0.374784,0.93696,0,-0.374784,0.93696,0,-0.374784,0.93696,0,-0.374784,0.93696,0,-0.374784,0.93696,0,-0.374784,0.93696,0,-0.374784,0.93696,0,-0.374784,0.93696,0,-0.374784,0.93696,0,-0.374784,0.93696,0,-0.374784,0.93696,0,-0.374784,0.93696,0,-0.374784,0.93696,0,-0.374784,0.93696,0,-0.374784,0.93696,0,-0.374784,0.93696,0,-0.374784,0.93696,0,-0.374784,0.93696,0,-0.374784,0.93696,0,-0.374784,0.93696,0,-0.374784,0.93696,0,-0.374784,0.93696,0,-0.374784,0.93696,0,-0.374784,0.93696,0,-0.374784,0.93696,0,-0.374784,0.93696,0,-0.374784,0.93696,0,-0.374784,0.93696,0,-0.374784,0.93696,0,-0.374784,0.93696,0,-0.374784,0.93696,0,-0.374784,0.93696,0,-0.374784,0.93696,0,-0.374784,0.93696,0,-0.374784,0.93696,0,-0.374784,0.93696,0,-0.374784,0.93696,0,-0.374784,0.93696,0,-0.374784,0.93696,0,-0.374784,0.93696,0,-0.374784,0.93696,0,-0.374784,0.93696,0,-0.374784,0.93696,0,-0.374784,0.93696,0,-0.374784,0.93696,0,-0.374784,0.93696,0,-0.374784,0.93696,0,-0.374784,0.93696,0,-0.374784,0.93696,0,-0.374784,0.93696,0,-0.374784,0.93696,0,-0.374784,0.93696,0,-0.374784,0.93696,0,-0.374784,0.93696,0,-0.374784,0.93696,0,-0.374784,0.93696,0,-0.374784,0.93696,0,-0.374784,0.93696,0,-0.374784,0.93696,0,-0.374784,0.93696,0,-0.374784,0.93696,0,-0.374784,0.93696,0,-0.374784,0.93696,0,-0.374784,0.93696,0,-0.374784,0.93696,0,-0.374784,0.93696,0,-0.374784,0.93696,0,-0.374784,0.93696,0,-0.374784,0.93696,0,-0.374784,0.93696,0,-0.374784,0.93696,0,-0.374784,0.93696,0,-0.374784,0.93696,0,-0.374784,0.93696,0,-0.374784,0.93696,0,-0.374784,0.93696,0,-0.374784,0.93696,0,-0.374784,0.93696,0,-0.374784,0.93696,0,-0.374784,0,0,0,0,0,0,0,0,0,0,0,0,0,0,0,0,0,-17.92,17.92,0,0,0,0,0,17.92,0,0,0,0,0,0,0,0,17.92,0,0,17.92,0,0,0,0,0,0,0,0,0,0,0,0,0,0,0,0,0,0,0,0,0,0,0
1728658374000,,0.93696,0,-0.374784,0.93696,0,-0.374784,0.93696,0,-0.374784,0.93696,0,-0.374784,0.93696,0,-0.374784,0.93696,0,-0.374784,0.93696,0,-0.374784,0.93696,0,-0.374784,0.93696,0,-0.374784,0.93696,0,-0.374784,0.93696,0,-0.374784,0.93696,0,-0.374784,0.93696,0,-0.374784,0.93696,0,-0.374784,0.93696,0,-0.374784,0.93696,0,-0.374784,0.93696,0,-0.374784,0.93696,0,-0.374784,0.93696,0,-0.374784,0.93696,0,-0.374784,0.93696,0,-0.374784,0.93696,0,-0.374784,0.93696,0,-0.374784,0.93696,0,-0.374784,0.93696,0,-0.374784,0.93696,0,-0.374784,0.93696,0,-0.374784,0.93696,0,-0.374784,0.93696,0,-0.374784,0.93696,0,-0.374784,0.93696,0,-0.374784,0.93696,0,-0.374784,0.93696,0,-0.374784,0.93696,0,-0.374784,0.93696,0,-0.374784,0.93696,0,-0.374784,0.93696,0,-0.374784,0.93696,0,-0.374784,0.93696,0,-0.374784,0.93696,0,-0.374784,0.93696,0,-0.374784,0.93696,0,-0.374784,0.93696,0,-0.374784,0.93696,0,-0.374784,0.93696,0,-0.374784,0.93696,0,-0.374784,0.93696,0,-0.374784,0.93696,0,-0.374784,0.93696,0,-0.374784,0.93696,0,-0.374784,0.93696,0,-0.374784,0.93696,0,-0.374784,0.93696,0,-0.374784,0.93696,0,-0.374784,0.93696,0,-0.374784,0.93696,0,-0.374784,0.93696,0,-0.374784,0.93696,0,-0.374784,0.93696,0,-0.374784,0.93696,0,-0.374784,0.93696,0,-0.374784,0.93696,0,-0.374784,0.93696,0,-0.374784,0.93696,0,-0.374784,0.93696,0,-0.374784,0.93696,0,-0.374784,0.93696,0,-0.374784,0.93696,0,-0.374784,0.93696,0,-0.374784,0.93696,0,-0.374784,0.93696,0,-0.374784,0.93696,0,-0.374784,0.93696,0,-0.374784,0.93696,0,-0.374784,0.93696,0,-0.374784,0.93696,0,-0.374784,0.93696,0,-0.374784,0.93696,0,-0.374784,0.93696,0,-0.374784,0.93696,0,-0.374784,0,0,0,0,0,0,0,0,0,0,0,0,0,0,0,0,0,0,-17.92,0,0,-17.92,0,0,0,0,0,0,0,0,0,0,0,0,0,0,0,0,0,0,0,0,0,0,0,0,0,0,0,0,0,17.92,0,0,0,0,0,0,0,0
1728658375000,,0.93696,0,-0.374784,0.93696,0,-0.374784,0.93696,0,-0.374784,0.93696,0,-0.374784,0.93696,0,-0.374784,0.93696,0,-0.374784,0.93696,0,-0.374784,0.93696,0,-0.374784,0.93696,0,-0.374784,0.93696,0,-0.374784,0.93696,0,-0.374784,0.93696,0,-0.374784,0.93696,0,-0.374784,0.93696,0,-0.374784,0.93696,0,-0.374784,0.93696,0,-0.374784,0.93696,0,-0.374784,0.93696,0,-0.374784,0.93696,0,-0.374784,0.93696,0,-0.374784,0.93696,0,-0.374784,0.93696,0,-0.374784,0.93696,0,-0.374784,0.93696,0,-0.374784,0.93696,0,-0.374784,0.93696,0,-0.374784,0.93696,0,-0.374784,0.93696,0,-0.374784,0.93696,0,-0.374784,0.93696,0,-0.374784,0.93696,0,-0.374784,0.93696,0,-0.374784,0.93696,0,-0.374784,0.93696,0,-0.374784,0.93696,0,-0.374784,0.93696,0,-0.374784,0.93696,0,-0.374784,0.93696,0,-0.374784,0.93696,0,-0.374784,0.93696,0,-0.374784,0.93696,0,-0.374784,0.93696,0,-0.374784,0.93696,0,-0.374784,0.93696,0,-0.374784,0.93696,0,-0.374784,0.93696,0,-0.374784,0.93696,0,-0.374784,0.93696,0,-0.374784,0.93696,0,-0.374784,0.93696,0,-0.374784,0.93696,0,-0.374784,0.93696,0,-0.374784,0.93696,0,-0.374784,0.93696,0,-0.374784,0.93696,0,-0.374784,0.93696,0,-0.374784,0.93696,0,-0.374784,0.93696,0,-0.374784,0.93696,0,-0.374784,0.93696,0,-0.374784,0.93696,0,-0.374784,0.93696,0,-0.374784,0.93696,0,-0.374784,0.93696,0,-0.374784,0.93696,0,-0.374784,0.93696,0,-0.374784,0.93696,0,-0.374784,0.93696,0,-0.374784,0.93696,0,-0.374784,0.93696,0,-0.374784,0.93696,0,-0.374784,0.93696,0,-0.374784,0.93696,0,-0.374784,0.93696,0,-0.374784,0.93696,0,-0.374784,0.93696,0,-0.374784,0.93696,0,-0.374784,0.93696,0,-0.374784,0.93696,0,-0.374784,0.93696,0,-0.374784,0,0,0,17.92,0,0,17.92,0,0,17.92,0,0,0,0,0,0,0,0,0,0,0,0,0,0,0,0,0,0,0,0,0,0,0,0,0,0,0,0,0,0,0,0,0,0,0,0,0,0,0,0,0,-17.92,0,0,-17.92,0,0,-17.92,0,0
1728658376000,,0.93696,0,-0.374784,0.93696,0,-0.374784,0.93696,0,-0.374784,0.93696,0,-0.374784,0.93696,0,-0.374784,0.93696,0,-0.374784,0.93696,0,-0.374784,0.93696,0,-0.374784,0.93696,0,-0.374784,0.93696,0,-0.374784,0.93696,0,-0.374784,0.93696,0,-0.374784,0.93696,0,-0.374784,0.93696,0,-0.374784,0.93696,0,-0.374784,0.93696,0,-0.374784,0.93696,0,-0.374784,0.93696,0,-0.374784,0.93696,0,-0.374784,0.93696,0,-0.374784,0.93696,0,-0.374784,0.93696,0,-0.374784,0.93696,0,-0.374784,0.93696,0,-0.374784,0.93696,0,-0.374784,0.93696,0,-0.374784,0.93696,0,-0.374784,0.93696,0,-0.374784,0.93696,0,-0.374784,0.93696,0,-0.374784,0.93696,0,-0.374784,0.93696,0,-0.374784,0.93696,0,-0.374784,0.93696,0,-0.374784,0.93696,0,-0.374784,0.93696,0,-0.374784,0.93696,0,-0.374784,0.93696,0,-0.374784,0.93696,0,-0.374784,0.93696,0,-0.374784,0.93696,0,-0.374784,0.93696,0,-0.374784,0.93696,0,-0.374784,0.93696,0,-0.374784,0.93696,0,-0.374784,0.93696,0,-0.374784,0.93696,0,-0.374784,0.93696,0,-0.374784,0.93696,0,-0.374784,0.93696,0,-0.374784,0.93696,0,-0.374784,0.93696,0,-0.374784,0.93696,0,-0.374784,0.93696,0,-0.374784,0.93696,0,-0.374784,0.93696,0,-0.374784,0.93696,0,-0.374784,0.93696,0,-0.374784,0.93696,0,-0.374784,0.93696,0,-0.374784,0.93696,0,-0.374784,0.93696,0,-0.374784,0.93696,0,-0.374784,0.93696,0,-0.374784,0.93696,0,-0.374784,0.93696,0,-0.374784,0.93696,0,-0.374784,0.93696,0,-0.374784,0.93696,0,-0.374784,0.93696,0,-0.374784,0.93696,0,-0.374784,0.93696,0,-0.374784,0.93696,0,-0.374784,0.93696,0,-0.374784,0.93696,0,-0.374784,0.93696,0,-0.374784,0.93696,0,-0.374784,0.93696,0,-0.374784,0.93696,0,-0.374784,0.93696,0,-0.374784,-17.92,0,0,0,0,0,0,0,0,0,0,0,0,0,0,0,0,0,0,0,0,0,0,0,0,0,0,0,0,0,0,0,0,0,0,0,0,0,0,0,0,0,0,0,0,0,0,0,0,0,0,0,0,0,0,0,0,0,0,0
1728658377000,,0.93696,0,-0.374784,0.93696,0,-0.374784,0.93696,0,-0.374784,0.93696,0,-0.374784,0.93696,0,-0.374784,0.93696,0,-0.374784,0.93696,0,-0.374784,0.93696,0,-0.374784,0.93696,0,-0.374784,0.93696,0,-0.374784,0.93696,0,-0.374784,0.93696,0,-0.374784,0.93696,0,-0.374784,0.93696,0,-0.374784,0.93696,0,-0.374784,0.93696,0,-0.374784,0.93696,0,-0.374784,0.93696,0,-0.374784,0.93696,0,-0.374784,0.93696,0,-0.374784,0.93696,0,-0.374784,0.93696,0,-0.374784,0.93696,0,-0.374784,0.93696,0,-0.374784,0.93696,0,-0.374784,0.93696,0,-0.374784,0.93696,0,-0.374784,0.93696,0,-0.374784,0.93696,0,-0.374784,0.93696,0,-0.374784,0.93696,0,-0.374784,0.93696,0,-0.374784,0.93696,0,-0.374784,0.93696,0,-0.374784,0.93696,0,-0.374784,0.93696,0,-0.374784,0.93696,0,-0.374784,0.93696,0,-0.374784,0.93696,0,-0.374784,0.93696,0,-0.374784,0.93696,0,-0.374784,0.93696,0,-0.374784,0.93696,0,-0.374784,0.93696,0,-0.374784,0.93696,0,-0.374784,0.93696,0,-0.374784,0.93696,0,-0.374784,0.93696,0,-0.374784,0.93696,0,-0.374784,0.93696,0,-0.374784,0.93696,0,-0.374784,0.93696,0,-0.374784,0.93696,0,-0.374784,0.93696,0,-0.374784,0.93696,0,-0.374784,0.93696,0,-0.374784,0.93696,0,-0.374784,0.93696,0,-0.374784,0.93696,0,-0.374784,0.93696,0,-0.374784,0.93696,0,-0.374784,0.93696,0,-0.374784,0.93696,0,-0.374784,0.93696,0,-0.374784,0.93696,0,-0.374784,0.93696,0,-0.374784,0.93696,0,-0.374784,0.93696,0,-0.374784,0.93696,0,-0.374784,0.93696,0,-0.374784,0.93696,0,-0.374784,0.93696,0,-0.374784,0.93696,0,-0.374784,0.93696,0,-0.374784,0.93696,0,-0.374784,0.93696,0,-0.374784,0.93696,0,-0.374784,0.93696,0,-0.374784,0.93696,0,-0.374784,0.93696,0,-0.374784,0,0,0,0,0,0,0,0,0,0,0,0,0,0,0,0,0,0,0,0,0,0,0,0,0,0,0,-17.92,0,0,-17.92,0,0,-17.92,0,0,-17.92,0,0,-17.92,0,0,-17.92,0,0,-17.92,0,0,-17.92,0,0,0,0,0,0,0,0,0,0,0
1728658378000,,0.93696,0,-0.374784,0.93696,0,-0.374784,0.93696,0,-0.374784,0.93696,0,-0.374784,0.93696,0,-0.374784,0.93696,0,-0.374784,0.93696,0,-0.374784,0.93696,0,-0.374784,0.93696,0,-0.374784,0.93696,0,-0.374784,0.93696,0,-0.374784,0.93696,0,-0.374784,0.93696,0,-0.374784,0.93696,0,-0.374784,0.93696,0,-0.374784,0.93696,0,-0.374784,0.93696,0,-0.374784,0.93696,0,-0.374784,0.93696,0,-0.374784,0.93696,0,-0.374784,0.93696,0,-0.374784,0.93696,0,-0.374784,0.93696,0,-0.374784,0.93696,0,-0.374784,0.93696,0,-0.374784,0.93696,0,-0.374784,0.93696,0,-0.374784,0.93696,0,-0.374784,0.93696,0,-0.374784,0.93696,0,-0.374784,0.93696,0,-0.374784,0.93696,0,-0.374784,0.93696,0,-0.374784,0.93696,0,-0.374784,0.93696,0,-0.374784,0.93696,0,-0.374784,0.93696,0,-0.374784,0.93696,0,-0.374784,0.93696,0,-0.374784,0.93696,0,-0.374784,0.93696,0,-0.374784,0.93696,0,-0.374784,0.93696,0,-0.374784,0.93696,0,-0.374784,0.93696,0,-0.374784,0.93696,0,-0.374784,0.93696,0,-0.374784,0.93696,0,-0.374784,0.93696,0,-0.374784,0.93696,0,-0.374784,0.93696,0,-0.374784,0.93696,0,-0.374784,0.93696,0,-0.374784,0.93696,0,-0.374784,0.93696,0,-0.374784,0.93696,0,-0.374784,0.93696,0,-0.374784,0.93696,0,-0.374784,0.93696,0,-0.374784,0.93696,0,-0.374784,0.93696,0,-0.374784,0.93696,0,-0.374784,0.93696,0,-0.374784,0.93696,0,-0.374784,0.93696,0,-0.374784,0.93696,0,-0.374784,0.93696,0,-0.374784,0.93696,0,-0.374784,0.93696,0,-0.374784,0.93696,0,-0.374784,0.93696,0,-0.374784,0.93696,0,-0.374784,0.93696,0,-0.374784,0.93696,0,-0.374784,0.93696,0,-0.374784,0.93696,0,-0.374784,0.93696,0,-0.374784,0.93696,0,-0.374784,0.93696,0,-0.374784,0.93696,0,-0.374784,0,0,0,0,0,0,0,0,0,0,0,0,0,0,0,0,0,0,0,0,0,0,0,0,0,0,0,0,0,0,0,0,0,0,0,0,0,0,0,0,0,0,0,0,0,0,0,0,0,0,0,0,0,0,0,0,0,0,0,0
1728658379000,,0.93696,0,-0.374784,0.93696,0,-0.374784,0.93696,0,-0.374784,0.93696,0,-0.374784,0.93696,0,-0.374784,0.93696,0,-0.374784,0.93696,0,-0.374784,0.93696,0,-0.374784,0.93696,0,-0.374784,0.93696,0,-0.374784,0.93696,0,-0.374784,0.93696,0,-0.374784,0.93696,0,-0.374784,0.93696,0,-0.374784,0.93696,0,-0.374784,0.93696,0,-0.374784,0.93696,0,-0.374784,0.93696,0,-0.374784,0.93696,0,-0.374784,0.93696,0,-0.374784,0.93696,0,-0.374784,0.93696,0,-0.374784,0.93696,0,-0.374784,0.93696,0,-0.374784,0.93696,0,-0.374784,0.93696,0,-0.374784,0.93696,0,-0.374784,0.93696,0,-0.374784,0.93696,0,-0.374784,0.93696,0,-0.374784,0.93696,0,-0.374784,0.93696,0,-0.374784,0.93696,0,-0.374784,0.93696,0,-0.374784,0.93696,0,-0.374784,0.93696,0,-0.374784,0.93696,0,-0.374784,0.93696,0,-0.374784,0.93696,0,-0.374784,0.93696,0,-0.374784,0.93696,0,-0.374784,0.93696,0,-0.374784,0.93696,0,-0.374784,0.93696,0,-0.374784,0.93696,0,-0.374784,0.93696,0,-0.374784,0.93696,0,-0.374784,0.93696,0,-0.374784,0.93696,0,-0.374784,0.93696,0,-0.374784,0.93696,0,-0.374784,0.93696,0,-0.374784,0.93696,0,-0.374784,0.93696,0,-0.374784,0.93696,0,-0.374784,0.93696,0,-0.374784,0.93696,0,-0.374784,0.93696,0,-0.374784,0.93696,0,-0.374784,0.93696,0,-0.374784,0.93696,0,-0.374784,0.93696,0,-0.374784,0.93696,0,-0.374784,0.93696,0,-0.374784,0.93696,0,-0.374784,0.93696,0,-0.374784,0.93696,0,-0.374784,0.93696,0,-0.374784,0.93696,0,-0.374784,0.93696,0,-0.374784,0.93696,0,-0.374784,0.93696,0,-0.374784,0.93696,0,-0.374784,0.93696,0,-0.374784,0.93696,0,-0.374784,0.93696,0,-0.374784,0.93696,0,-0.374784,0.93696,0,-0.374784,0.93696,0,-0.374784,0.93696,0,-0.374784,0,0,0,0,0,0,0,0,0,0,0,0,0,0,0,0,0,0,0,0,0,0,0,0,0,0,0,0,0,0,0,0,0,0,0,0,0,0,0,0,0,0,0,0,0,0,0,0,0,0,0,0,0,0,0,-17.92,0,0,-17.92,0
1728658380000,,0.93696,0,-0.374784,0.93696,0,-0.374784,0.93696,0,-0.374784,0.93696,0,-0.374784,0.93696,0,-0.374784,0.93696,0,-0.374784,0.93696,0,-0.374784,0.93696,0,-0.374784,0.93696,-0.187392,-0.374784,0.93696,0,-0.374784,0.93696,0,-0.374784,0.93696,0,-0.374784,0.93696,0,-0.374784,0.93696,0,-0.374784,0.93696,0,-0.374784,0.93696,0,-0.374784,0.93696,0,-0.374784,0.93696,0,-0.374784,0.93696,0,-0.374784,0.93696,0,-0.374784,0.93696,0,-0.374784,0.93696,0,-0.374784,0.93696,0,-0.374784,0.93696,0,-0.374784,0.93696,0,-0.374784,0.93696,0,-0.374784,0.93696,0,-0.374784,0.93696,0,-0.374784,0.93696,0,-0.374784,0.93696,0,-0.374784,0.93696,0,-0.374784,0.93696,0,-0.374784,0.93696,0,-0.374784,0.93696,0,-0.374784,0.93696,0,-0.374784,0.93696,0,-0.374784,0.93696,0,-0.374784,0.93696,0,-0.374784,0.93696,0,-0.374784,0.93696,0,-0.374784,0.93696,0,-0.374784,0.93696,0,-0.374784,0.93696,0,-0.374784,0.93696,0,-0.374784,0.93696,0,-0.374784,0.93696,0,-0.374784,0.93696,0,-0.374784,0.93696,0,-0.374784,0.93696,0,-0.374784,0.93696,0,-0.374784,0.93696,0,-0.374784,0.93696,0,-0.374784,0.93696,0,-0.374784,0.93696,0.187392,-0.374784,0.93696,0,-0.374784,0.93696,0,-0.374784,0.93696,0,-0.374784,0.93696,0,-0.374784,0.93696,0,-0.374784,0.93696,0,-0.374784,0.93696,0,-0.374784,0.93696,0,-0.374784,0.93696,0.187392,-0.374784,0.93696,0,-0.374784,0.93696,0,-0.374784,0.93696,0,-0.374784,0.93696,0,-0.374784,0.93696,0,-0.374784,0.93696,0,-0.374784,0.93696,0,-0.374784,0.93696,0,-0.374784,0.93696,0,-0.374784,0.93696,0,-0.374784,0.93696,0,-0.374784,0.93696,0,-0.374784,0.93696,0,-0.374784,0.93696,0,-0.374784,0.93696,0,-0.374784,0.93696,0,-0.374784,0.93696,0,-0.374784,0,-17.92,0,17.92,-17.92,0,17.92,-17.92,0,17.92,0,-17.92,17.92,-17.92,0,17.92,0,-17.92,35.84,0,-17.92,35.84,0,-17.92,53.76,0,-17.92,35.84,0,-17.92,35.84,0,0,35.84,0,0,17.92,0,0,17.92,0,0,0,0,0,0,0,0,-17.92,0,0,-17.92,0,0,-17.92,0,0,-17.92,0,0
1728658381000,,0.93696,0,-0.374784,0.93696,0,-0.374784,0.93696,0,-0.374784,0.93696,0,-0.374784,0.93696,0,-0.374784,0.93696,0,-0.374784,0.93696,0,-0.374784,0.93696,0,-0.374784,0.93696,0,-0.374784,0.93696,0,-0.374784,0.93696,0,-0.374784,0.93696,0,-0.374784,0.93696,0,-0.374784,0.93696,0,-0.374784,0.93696,0,-0.374784,0.93696,0,-0.374784,0.93696,0,-0.374784,0.93696,0,-0.374784,0.93696,0,-0.374784,0.93696,0,-0.374784,0.93696,0,-0.374784,0.93696,0,-0.374784,0.93696,0,-0.374784,0.93696,-0.187392,-0.374784,0.93696,-0.187392,-0.374784,0.93696,-0.187392,-0.374784,0.93696,0,-0.374784,0.93696,0,-0.374784,0.93696,0,-0.374784,0.93696,0,-0.374784,0.93696,0,-0.374784,0.93696,0,-0.374784,0.93696,0,-0.374784,0.93696,0,-0.374784,0.93696,0,-0.374784,0.93696,0,-0.374784,0.93696,0,-0.374784,0.93696,0,-0.374784,0.93696,0,-0.374784,0.93696,0,-0.374784,0.93696,0,-0.374784,0.93696,0,-0.374784,0.93696,0,-0.374784,0.93696,0,-0.374784,0.93696,0,-0.374784,0.93696,0,-0.374784,0.93696,0,-0.374784,0.93696,0,-0.374784,0.93696,0,-0.374784,0.93696,0,-0.374784,0.93696,0,-0.374784,0.93696,0,-0.374784,0.93696,0,-0.374784,0.93696,0,-0.374784,0.93696,0,-0.374784,0.93696,0,-0.374784,0.93696,0,-0.374784,0.93696,0,-0.374784,0.93696,0,-0.374784,0.93696,0,-0.374784,0.93696,0,-0.374784,0.93696,0,-0.374784,0.93696,0,-0.374784,0.93696,0,-0.374784,0.93696,0,-0.374784,0.93696,0,-0.374784,0.93696,0,-0.374784,0.93696,0,-0.374784,0.93696,0,-0.374784,0.93696,0,-0.374784,0.93696,0,-0.374784,0.93696,0,-0.374784,0.93696,0,-0.374784,0.93696,0,-0.374784,0.93696,0,-0.374784,0.93696,0,-0.374784,0.93696,0,-0.374784,0.93696,0,-0.374784,0.93696,0,-0.374784,0.93696,0,-0.374784,-17.92,17.92,0,-17.92,0,0,0,17.92,0,0,17.92,-17.92,17.92,17.92,0,0,0,0,17.92,0,0,17.92,0,0,17.92,0,0,17.92,0,0,0,0,0,0,0,0,0,0,0,0,0,0,0,0,0,0,0,0,0,0,0,17.92,0,0,17.92,0,-17.92,17.92,0,-17.92
1728658382000,,0.93696,0,-0.374784,0.93696,0,-0.374784,0.93696,0,-0.374784,0.93696,0,-0.374784,0.93696,0,-0.374784,0.93696,0,-0.374784,0.93696,0,-0.374784,0.93696,0,-0.374784,0.93696,0,-0.374784,0.93696,0,-0.374784,0.93696,0,-0.374784,0.93696,0,-0.374784,0.93696,0,-0.374784,0.93696,0,-0.374784,0.93696,0,-0.374784,0.93696,0,-0.374784,0.93696,0,-0.374784,0.93696,0,-0.374784,0.93696,0,-0.374784,0.93696,0,-0.374784,0.93696,0.187392,-0.374784,0.93696,0.187392,-0.374784,0.93696,0.187392,-0.374784,0.93696,0.187392,-0.374784,0.93696,0.187392,-0.374784,0.93696,0.187392,-0.374784,0.93696,0.187392,-0.374784,0.93696,0.187392,-0.374784,0.93696,0.187392,-0.374784,0.93696,0.187392,-0.374784,0.93696,0,-0.374784,0.93696,0.187392,-0.374784,0.93696,0,-0.374784,0.93696,0,-0.374784,0.93696,0,-0.374784,0.93696,0,-0.374784,0.93696,0,-0.374784,0.93696,0,-0.374784,0.93696,0,-0.374784,0.93696,0,-0.374784,0.93696,0,-0.374784,0.93696,0,-0.374784,0.93696,0,-0.374784,0.93696,0,-0.374784,0.93696,0,-0.374784,0.93696,0,-0.374784,0.93696,0,-0.374784,0.93696,0,-0.374784,0.93696,0,-0.374784,0.93696,0,-0.374784,0.93696,0,-0.374784,0.93696,0,-0.374784,0.93696,0,-0.374784,0.93696,0,-0.374784,0.93696,0,-0.374784,0.93696,0,-0.374784,0.93696,-0.187392,-0.374784,0.93696,0,-0.374784,0.93696,0,-0.374784,0.93696,0,-0.374784,0.93696,0,-0.374784,0.93696,0,-0.374784,0.93696,0,-0.374784,0.93696,0,-0.374784,0.93696,0,-0.374784,0.93696,0,-0.374784,0.93696,0,-0.374784,0.93696,0,-0.374784,0.93696,0,-0.374784,0.93696,-0.187392,-0.374784,0.93696,-0.187392,-0.374784,0.749568,-0.187392,-0.374784,0.93696,0,-0.374784,0.93696,0,-0.374784,0.93696,0,-0.374784,0.93696,0,-0.374784,0.93696,0,-0.374784,0.93696,0,-0.374784,0.93696,0,-0.374784,0.93696,0,-0.374784,17.92,0,0,17.92,0,0,35.84,0,0,17.92,0,0,17.92,0,0,0,0,0,0,0,0,0,0,0,-17.92,0,0,-17.92,0,0,-17.92,0,0,-17.92,0,0,-35.84,0,0,-35.84,0,0,-35.84,0,0,-35.84,0,0,-35.84,0,0,-17.92,17.92,0,-17.92,0,0,-17.92,0,0
1728658383000,,0.93696,0,-0.374784,0.93696,0,-0.374784,0.93696,0,-0.374784,0.93696,0,-0.374784,0.93696,0,-0.374784,0.93696,0,-0.374784,0.93696,0,-0.374784,0.93696,0,-0.374784,0.93696,0,-0.374784,0.93696,0,-0.374784,0.93696,0,-0.374784,0.93696,0,-0.374784,0.93696,0,-0.374784,0.93696,0,-0.374784,0.93696,0,-0.374784,0.93696,0,-0.374784,0.93696,0,-0.374784,0.93696,0,-0.374784,0.93696,0,-0.374784,0.93696,0,-0.374784,0.93696,0,-0.374784,0.93696,0,-0.374784,0.93696,0,-0.374784,0.93696,0,-0.374784,0.93696,0,-0.374784,0.93696,0,-0.374784,0.93696,0,-0.374784,0.93696,0,-0.374784,0.93696,0,-0.374784,0.93696,0,-0.374784,0.93696,0,-0.374784,0.93696,0,-0.374784,0.93696,0,-0.374784,0.93696,0,-0.374784,0.93696,0,-0.374784,0.93696,0,-0.374784,0.93696,0,-0.374784,0.93696,0,-0.374784,0.93696,0,-0.374784,0.93696,0,-0.374784,0.93696,0,-0.374784,0.93696,0,-0.374784,0.93696,0,-0.374784,0.93696,0,-0.374784,0.93696,0,-0.374784,0.93696,0,-0.374784,0.93696,0,-0.374784,0.93696,0,-0.374784,0.93696,0,-0.374784,0.93696,0,-0.374784,0.93696,0,-0.374784,0.93696,0,-0.374784,0.93696,0,-0.374784,0.93696,0,-0.374784,0.93696,0,-0.374784,0.93696,0,-0.374784,0.93696,0,-0.374784,0.93696,0,-0.374784,0.93696,0,-0.374784,0.93696,0,-0.374784,0.93696,0,-0.374784,0.93696,0,-0.374784,0.93696,0,-0.374784,0.93696,0,-0.374784,0.93696,0,-0.374784,0.93696,0,-0.374784,0.93696,0,-0.374784,0.93696,0,-0.374784,0.93696,0,-0.374784,0.93696,0,-0.374784,0.93696,0,-0.374784,0.93696,0,-0.374784,0.93696,0,-0.374784,0.93696,0,-0.374784,0.93696,0,-0.374784,0.93696,0,-0.374784,0.93696,0,-0.374784,0.93696,0,-0.374784,0.93696,0,-0.374784,0.93696,0,-0.374784,-17.92,0,0,0,0,0,0,0,0,0,0,0,0,0,0,0,0,0,0,0,0,0,0,0,-17.92,0,17.92,-17.92,0,0,0,0,0,-17.92,17.92,0,0,17.92,0,0,17.92,0,0,17.92,0,0,17.92,0,0,17.92,0,0,0,0,0,0,0,0,0,0
1728658384000,,0.93696,0,-0.374784,0.93696,0,-0.374784,0.93696,0,-0.374784,0.93696,0,-0.374784,0.93696,0,-0.374784,0.93696,0,-0.374784,0.93696,0,-0.374784,0.93696,0,-0.374784,0.93696,0,-0.374784,0.93696,0,-0.374784,0.93696,0,-0.374784,0.93696,0,-0.374784,0.93696,0,-0.374784,0.93696,0,-0.374784,0.93696,0,-0.374784,0.93696,0,-0.374784,0.93696,0,-0.374784,0.93696,0,-0.374784,0.93696,0,-0.374784,0.93696,0,-0.374784,0.93696,0,-0.374784,0.93696,0,-0.374784,0.93696,0,-0.374784,0.93696,0,-0.374784,0.93696,0,-0.374784,0.93696,0,-0.374784,0.93696,0,-0.374784,0.93696,0,-0.374784,0.93696,0,-0.374784,0.93696,0,-0.374784,0.93696,0,-0.374784,0.93696,0,-0.374784,0.93696,0,-0.374784,0.93696,0,-0.374784,0.93696,0,-0.374784,0.93696,0,-0.374784,0.93696,0,-0.374784,0.93696,0,-0.374784,0.93696,0,-0.374784,0.93696,0,-0.374784,0.93696,0,-0.374784,0.93696,0,-0.374784,0.93696,0,-0.374784,0.93696,0,-0.374784,0.93696,0,-0.374784,0.93696,0,-0.374784,0.93696,0,-0.374784,0.93696,0,-0.374784,0.93696,0,-0.374784,0.93696,0,-0.374784,0.93696,0,-0.374784,0.93696,0,-0.374784,0.93696,0,-0.374784,0.93696,0,-0.374784,0.93696,0,-0.374784,0.93696,0,-0.374784,0.93696,0,-0.374784,0.93696,0,-0.374784,0.93696,0,-0.374784,0.93696,0,-0.374784,0.93696,0,-0.374784,0.93696,0,-0.374784,0.93696,0,-0.374784,0.93696,0,-0.374784,0.93696,0,-0.374784,0.93696,0,-0.374784,0.93696,0,-0.374784,0.93696,0,-0.374784,0.93696,0,-0.374784,0.93696,0,-0.374784,0.93696,0,-0.374784,0.93696,0,-0.374784,0.93696,0,-0.374784,0.93696,0,-0.374784,0.93696,0,-0.374784,0.93696,0,-0.374784,0.93696,0,-0.374784,0.93696,0,-0.374784,0.93696,0,-0.374784,0.93696,0,-0.374784,0,0,0,0,0,0,0,0,0,-17.92,0,17.92,-17.92,0,17.92,0,0,17.92,-17.92,0,17.92,0,0,0,-17.92,0,0,0,0,0,0,0,0,0,0,0,0,0,0,0,0,0,0,0,0,0,0,0,0,0,0,0,0,0,0,0,0,0,0,0
1728658385000,,0.93696,0,-0.374784,0.93696,0,-0.374784,0.93696,0,-0.374784,0.93696,0,-0.374784,0.93696,0,-0.374784,0.93696,0,-0.374784,0.93696,0,-0.374784,0.93696,0,-0.374784,0.93696,0,-0.374784,0.93696,0,-0.374784,0.93696,0,-0.374784,0.93696,0,-0.374784,0.93696,0,-0.374784,0.93696,0,-0.374784,0.93696,0,-0.374784,0.93696,0,-0.374784,0.93696,0,-0.374784,0.93696,0,-0.374784,0.93696,0,-0.374784,0.93696,0,-0.374784,0.93696,0,-0.374784,0.93696,0,-0.374784,0.93696,0,-0.374784,0.93696,0,-0.374784,0.93696,0,-0.374784,0.93696,0,-0.374784,0.93696,0,-0.374784,0.93696,0,-0.374784,0.93696,0,-0.374784,0.93696,0,-0.374784,0.93696,0,-0.374784,0.93696,0,-0.374784,0.93696,0,-0.374784,0.93696,0,-0.374784,0.93696,0,-0.374784,0.93696,0,-0.374784,0.93696,0,-0.374784,0.93696,0,-0.374784,0.93696,0,-0.374784,0.93696,0,-0.374784,0.93696,0,-0.374784,0.93696,0,-0.374784,0.93696,0,-0.374784,0.93696,0,-0.374784,0.93696,0,-0.374784,0.93696,0,-0.374784,0.93696,0,-0.374784,0.93696,0,-0.374784,0.93696,0,-0.374784,0.93696,0,-0.374784,0.93696,0,-0.374784,0.93696,0,-0.374784,0.93696,0,-0.374784,0.93696,0,-0.374784,0.93696,0,-0.374784,0.93696,-0.187392,-0.374784,0.93696,0,-0.374784,0.93696,0,-0.374784,0.93696,0,-0.374784,0.93696,0,-0.374784,0.93696,0,-0.374784,0.93696,0,-0.374784,0.93696,0,-0.374784,0.93696,0,-0.374784,0.93696,0,-0.374784,0.93696,0,-0.374784,0.93696,0,-0.374784,0.93696,0,-0.374784,0.93696,0,-0.374784,0.93696,0,-0.374784,0.93696,0,-0.374784,0.93696,0,-0.374784,0.93696,0,-0.374784,0.93696,0,-0.374784,0.93696,0,-0.374784,0.93696,0,-0.374784,0.93696,0,-0.374784,0.93696,0,-0.374784,0.93696,0,-0.374784,0.93696,0,-0.374784,0,0,0,0,0,0,0,0,0,0,0,0,0,0,0,0,0,0,0,0,0,0,0,0,0,0,0,0,0,0,0,0,0,0,0,0,0,0,0,0,0,0,0,0,-17.92,0,0,-17.92,0,0,0,0,0,0,0,0,0,0,0,0
1728658386000,,0.93696,0,-0.374784,0.93696,0,-0.374784,0.93696,0,-0.374784,0.93696,0,-0.374784,0.93696,0,-0.374784,0.93696,0,-0.374784,0.93696,0,-0.374784,0.93696,0,-0.374784,0.93696,0,-0.374784,0.93696,0,-0.374784,0.93696,0,-0.374784,0.93696,0,-0.374784,0.93696,0,-0.374784,0.93696,0,-0.374784,0.93696,0,-0.374784,0.93696,0,-0.374784,0.93696,0,-0.374784,0.93696,0,-0.374784,0.93696,0,-0.374784,0.93696,0,-0.374784,0.93696,0,-0.374784,0.93696,0,-0.374784,0.93696,0,-0.374784,0.93696,0,-0.374784,0.93696,0,-0.374784,0.93696,0,-0.374784,0.93696,0,-0.374784,0.93696,0,-0.374784,0.93696,0,-0.374784,0.93696,0,-0.374784,0.93696,0,-0.374784,0.93696,0,-0.374784,0.93696,0,-0.374784,0.93696,0,-0.374784,0.93696,0,-0.374784,0.93696,0,-0.374784,0.93696,0,-0.374784,0.93696,0,-0.374784,0.93696,0,-0.374784,0.93696,0,-0.374784,0.93696,0,-0.374784,0.93696,0,-0.374784,0.93696,0,-0.374784,0.93696,0,-0.374784,0.93696,0,-0.374784,0.93696,0,-0.374784,0.93696,0,-0.374784,0.93696,0,-0.374784,0.93696,0,-0.374784,0.93696,0,-0.374784,0.93696,0,-0.374784,0.93696,0,-0.374784,0.93696,0,-0.374784,0.93696,0,-0.374784,0.93696,0,-0.374784,0.93696,0,-0.374784,0.93696,0,-0.374784,0.93696,0,-0.374784,0.93696,0,-0.374784,0.93696,0,-0.374784,0.93696,0,-0.374784,0.93696,0,-0.374784,0.749568,0,-0.374784,0.93696,0,-0.374784,0.93696,0,-0.374784,0.93696,0,-0.374784,0.93696,0,-0.374784,0.93696,0,-0.374784,0.93696,0,-0.374784,0.93696,0,-0.374784,0.93696,0,-0.374784,0.93696,0,-0.374784,0.93696,0,-0.374784,0.93696,0,-0.374784,0.93696,0,-0.374784,0.93696,0,-0.374784,0.93696,0,-0.374784,0.93696,0,-0.374784,0.93696,0,-0.374784,0.93696,0,-0.374784,0,0,0,0,0,0,0,0,0,0,0,0,0,0,0,0,0,0,-17.92,0,0,0,0,0,0,0,0,0,0,0,17.92,0,0,0,0,0,0,0,0,0,0,0,0,0,0,0,0,0,0,0,0,0,0,0,0,0,0,0,0,0
1728658387000,,0.93696,0,-0.374784,0.93696,0,-0.374784,0.93696,0,-0.374784,0.93696,0,-0.374784,0.93696,0,-0.374784,0.93696,0,-0.374784,0.93696,0,-0.374784,0.93696,0,-0.374784,0.93696,0,-0.374784,0.93696,0,-0.374784,0.93696,0,-0.374784,0.93696,0,-0.374784,0.93696,0,-0.374784,0.93696,0,-0.374784,0.93696,0,-0.374784,0.93696,0,-0.374784,0.93696,0,-0.374784,0.93696,0,-0.374784,0.93696,0,-0.374784,0.93696,0,-0.374784,0.93696,0,-0.374784,0.93696,0,-0.374784,0.93696,0,-0.374784,0.93696,0,-0.374784,0.93696,0,-0.374784,0.93696,0,-0.374784,0.93696,0,-0.374784,0.93696,0,-0.374784,0.93696,0,-0.374784,0.93696,0,-0.374784,0.93696,0,-0.374784,0.93696,0,-0.374784,0.93696,0,-0.374784,0.93696,0,-0.374784,0.93696,0,-0.374784,0.93696,0,-0.374784,0.93696,0,-0.374784,0.93696,0,-0.374784,0.93696,0,-0.374784,0.93696,0,-0.374784,0.93696,0,-0.374784,0.93696,0,-0.374784,0.93696,0,-0.374784,0.93696,0,-0.374784,0.93696,0,-0.374784,0.93696,0,-0.374784,0.93696,0,-0.374784,0.93696,0,-0.374784,0.93696,0,-0.374784,0.93696,0,-0.374784,0.93696,0,-0.374784,0.93696,0,-0.374784,0.93696,0,-0.374784,0.93696,0,-0.374784,0.93696,0,-0.374784,0.93696,0,-0.374784,0.93696,0,-0.374784,0.93696,0,-0.374784,0.93696,0,-0.374784,0.93696,0,-0.374784,0.93696,0,-0.374784,0.93696,0,-0.374784,0.93696,0,-0.374784,0.93696,0,-0.374784,0.93696,0,-0.374784,0.93696,0,-0.374784,0.93696,0,-0.374784,0.93696,0,-0.374784,0.93696,0,-0.374784,0.93696,0,-0.374784,0.93696,0,-0.374784,0.93696,0,-0.374784,0.93696,0,-0.374784,0.93696,0,-0.374784,0.93696,0,-0.374784,0.93696,0,-0.374784,0.93696,0,-0.374784,0.93696,0,-0.374784,0.93696,0,-0.374784,0.93696,0,-0.374784,0,0,0,0,0,0,0,0,0,0,0,0,0,0,0,0,0,0,0,0,0,0,0,0,0,0,0,0,0,0,0,0,0,0,0,0,0,0,0,0,0,0,0,0,0,0,0,0,0,0,0,0,0,0,0,0,0,0,0,0
1728658388000,,0.93696,0,-0.374784,0.93696,0,-0.374784,0.93696,0,-0.374784,0.93696,0,-0.374784,0.93696,0,-0.374784,0.93696,0,-0.374784,0.93696,0,-0.374784,0.93696,0,-0.374784,0.93696,0,-0.374784,0.93696,0,-0.374784,0.93696,0,-0.374784,0.93696,0,-0.374784,0.93696,0,-0.374784,0.93696,0,-0.374784,0.93696,0,-0.374784,0.93696,0,-0.374784,0.93696,0,-0.374784,0.93696,0,-0.374784,0.93696,0,-0.374784,0.93696,0,-0.374784,0.93696,0,-0.374784,0.93696,0,-0.374784,0.93696,0,-0.374784,0.93696,0,-0.374784,0.93696,0,-0.374784,0.93696,0,-0.374784,0.93696,0,-0.374784,0.93696,0,-0.374784,0.93696,0,-0.374784,0.93696,0,-0.374784,0.93696,0,-0.374784,0.93696,0,-0.374784,0.93696,0,-0.374784,0.93696,0,-0.374784,0.93696,0,-0.374784,0.93696,0,-0.374784,0.93696,0,-0.374784,0.93696,0,-0.374784,0.93696,0,-0.374784,0.93696,0,-0.374784,0.93696,0,-0.374784,0.93696,0,-0.374784,0.93696,0,-0.374784,0.93696,0,-0.374784,0.93696,0,-0.374784,0.93696,0,-0.374784,0.93696,0,-0.374784,0.93696,0,-0.374784,0.93696,-0.187392,-0.374784,0.93696,0,-0.374784,0.93696,0,-0.374784,0.93696,0,-0.374784,0.93696,0,-0.374784,0.93696,0,-0.374784,0.93696,0,-0.374784,0.93696,0,-0.374784,0.93696,0,-0.374784,0.93696,0,-0.374784,0.93696,0,-0.374784,0.93696,0,-0.374784,0.93696,0,-0.374784,0.93696,0,-0.374784,0.93696,0,-0.374784,0.93696,0,-0.374784,0.93696,0,-0.374784,0.93696,0,-0.374784,0.93696,0,-0.374784,0.93696,0,-0.374784,0.93696,0,-0.374784,0.93696,0,-0.374784,0.93696,0,-0.374784,0.93696,0,-0.374784,0.93696,0,-0.374784,0.93696,0,-0.374784,0.93696,0,-0.374784,0.93696,0,-0.374784,0.93696,0,-0.374784,0.93696,0,-0.374784,0.93696,0,-0.374784,0.93696,0,-0.374784,0,0,0,0,0,0,0,0,0,0,0,0,0,0,0,0,0,0,0,0,0,-17.92,0,0,0,0,0,0,0,0,0,0,0,0,0,0,0,0,0,0,0,0,0,0,0,0,0,0,0,0,0,0,0,0,0,0,0,0,0,0
1728658389000,,0.93696,0,-0.374784,0.93696,0,-0.374784,0.93696,0,-0.374784,0.93696,-0.187392,-0.374784,0.93696,0,-0.374784,0.93696,0,-0.374784,0.93696,0,-0.374784,0.93696,0,-0.374784,0.93696,0,-0.374784,0.93696,0,-0.374784,0.93696,0,-0.374784,0.93696,0,-0.374784,0.93696,0,-0.374784,0.93696,0,-0.374784,0.93696,0,-0.374784,0.93696,0,-0.374784,0.93696,0,-0.562176,0.93696,0,-0.562176,0.93696,0,-0.562176,0.93696,0,-0.562176,0.93696,0,-0.374784,0.93696,0,-0.374784,0.93696,0,-0.374784,0.93696,0,-0.374784,0.93696,0,-0.374784,0.93696,0,-0.374784,0.93696,0,-0.374784,0.93696,0,-0.374784,0.749568,0,-0.374784,0.93696,0,-0.374784,0.93696,0,-0.374784,0.93696,0,-0.374784,0.93696,0,-0.374784,0.93696,0,-0.374784,0.93696,0,-0.374784,0.93696,0,-0.374784,0.93696,0,-0.374784,0.93696,0,-0.374784,0.93696,0,-0.562176,0.93696,0,-0.374784,0.93696,0,-0.374784,0.93696,-0.187392,-0.374784,0.93696,0,-0.374784,0.93696,0,-0.374784,0.93696,0,-0.374784,0.93696,0,-0.374784,0.93696,0,-0.374784,0.93696,0,-0.374784,0.93696,0,-0.374784,0.93696,0,-0.374784,0.93696,0,-0.374784,0.93696,0,-0.374784,0.93696,0,-0.374784,0.93696,0,-0.374784,0.93696,0,-0.374784,0.93696,0,-0.374784,0.93696,0,-0.374784,0.93696,0,-0.374784,0.93696,0,-0.374784,0.93696,0,-0.374784,0.93696,0,-0.374784,0.93696,0,-0.374784,0.93696,0,-0.374784,0.93696,0,-0.374784,0.93696,0,-0.374784,0.93696,0,-0.374784,0.93696,0,-0.374784,0.93696,0,-0.374784,0.93696,0,-0.374784,0.93696,0,-0.374784,0.93696,0,-0.374784,0.93696,0,-0.374784,0.93696,0,-0.374784,0.93696,0,-0.374784,0.93696,0,-0.374784,0.93696,0,-0.374784,0.93696,0,-0.374784,0.93696,0,-0.374784,0.93696,0,-0.374784,0.93696,0,-0.374784,0,0,0,17.92,0,0,17.92,0,-17.92,0,0,0,0,0,0,-17.92,0,0,-17.92,0,17.92,-17.92,0,17.92,-17.92,0,0,-17.92,0,0,-17.92,0,0,0,0,0,0,0,0,0,0,0,0,0,0,0,0,0,0,0,0,0,0,0,0,0,0,0,0,0
1728658390000,,0.93696,0,-0.374784,0.93696,0,-0.374784,0.93696,0,-0.374784,0.93696,0,-0.374784,0.93696,0,-0.374784,0.93696,0,-0.374784,0.93696,0,-0.374784,0.93696,0,-0.374784,0.93696,0,-0.374784,0.93696,0,-0.374784,0.93696,0,-0.374784,0.93696,0,-0.374784,0.93696,0,-0.374784,0.93696,0,-0.374784,0.93696,0,-0.374784,0.93696,0,-0.374784,0.93696,0,-0.374784,0.93696,0,-0.374784,0.93696,0,-0.374784,0.93696,0,-0.374784,0.93696,0,-0.374784,0.93696,0,-0.374784,0.93696,0,-0.374784,0.93696,0,-0.374784,0.93696,0,-0.374784,0.93696,0,-0.374784,0.93696,0,-0.374784,0.93696,0,-0.374784,0.93696,-0.187392,-0.374784,0.93696,-0.187392,-0.374784,0.93696,0,-0.374784,0.93696,0,-0.374784,0.93696,0,-0.374784,0.93696,0,-0.374784,0.93696,0,-0.374784,0.93696,0,-0.374784,0.93696,0,-0.374784,0.93696,0,-0.374784,0.93696,0,-0.374784,0.93696,0,-0.374784,0.93696,0,-0.374784,0.93696,0,-0.374784,0.93696,0,-0.374784,0.93696,0,-0.374784,0.93696,0,-0.374784,0.93696,0,-0.374784,0.93696,0,-0.374784,0.93696,0,-0.374784,0.93696,0,-0.374784,0.93696,0,-0.374784,0.93696,0,-0.374784,0.93696,0,-0.374784,0.93696,0,-0.374784,0.93696,0,-0.374784,0.93696,0,-0.374784,0.93696,0,-0.374784,0.93696,0,-0.374784,0.93696,0,-0.374784,0.93696,0,-0.374784,0.93696,0,-0.374784,0.93696,0,-0.374784,0.93696,0,-0.374784,0.93696,0,-0.374784,0.93696,0,-0.374784,0.93696,0,-0.374784,0.93696,0,-0.374784,0.93696,0,-0.374784,0.93696,0,-0.374784,0.93696,0,-0.374784,0.93696,0,-0.374784,0.93696,0,-0.374784,0.93696,0,-0.374784,0.93696,0,-0.374784,0.93696,0,-0.374784,0.93696,0,-0.374784,0.93696,0,-0.374784,0.93696,0,-0.374784,0.93696,-0.187392,-0.374784,0.93696,-0.187392,-0.374784,0.93696,-0.187392,-0.374784,0,0,0,0,0,0,0,0,0,0,0,0,0,0,0,-17.92,0,0,-17.92,0,0,-17.92,0,0,0,0,0,0,0,0,0,0,0,0,0,0,0,0,0,0,0,0,0,0,0,0,0,0,0,0,0,0,0,0,0,0,-17.92,0,0,0
1728658391000,,0.93696,-0.187392,-0.374784,0.93696,-0.187392,-0.374784,0.93696,0,-0.374784,0.93696,0,-0.374784,0.93696,0,-0.374784,0.93696,0,-0.374784,0.93696,0,-0.374784,0.93696,0,-0.374784,0.93696,0,-0.374784,0.93696,0,-0.374784,0.93696,0,-0.374784,0.93696,0,-0.374784,0.93696,0,-0.374784,0.93696,0,-0.374784,0.93696,0,-0.374784,0.93696,0,-0.374784,0.93696,0,-0.374784,0.93696,0,-0.374784,0.93696,0,-0.374784,0.93696,0,-0.374784,0.93696,0,-0.374784,0.93696,0,-0.374784,0.93696,0,-0.374784,0.93696,0,-0.374784,0.93696,0,-0.374784,0.93696,0,-0.374784,0.93696,0,-0.374784,0.93696,0,-0.374784,0.93696,0,-0.374784,0.93696,0,-0.374784,0.93696,0,-0.374784,0.93696,0,-0.374784,0.93696,0,-0.374784,0.93696,0,-0.374784,0.93696,0,-0.374784,0.749568,0,-0.374784,0.93696,0,-0.374784,0.93696,0,-0.374784,0.93696,0,-0.374784,0.93696,0,-0.374784,0.93696,0,-0.374784,0.93696,0,-0.374784,0.93696,-0.187392,-0.374784,0.93696,0,-0.374784,0.93696,0,-0.374784,0.93696,0,-0.374784,0.93696,0,-0.374784,0.93696,0,-0.374784,0.93696,0,-0.374784,0.93696,0,-0.374784,0.93696,0,-0.374784,0.93696,0,-0.374784,0.93696,0,-0.374784,0.93696,0,-0.374784,0.93696,0,-0.374784,0.93696,0,-0.374784,0.93696,0,-0.374784,0.93696,0,-0.374784,0.93696,0,-0.374784,0.93696,0,-0.374784,0.93696,0,-0.374784,0.93696,0,-0.374784,0.93696,0,-0.374784,0.93696,0,-0.374784,0.93696,0,-0.374784,0.93696,0,-0.374784,0.93696,0,-0.374784,0.93696,0,-0.374784,0.93696,0,-0.374784,0.93696,0,-0.374784,0.93696,0,-0.374784,0.93696,0,-0.374784,0.93696,0,-0.374784,0.93696,0,-0.374784,0.93696,0,-0.374784,0.93696,0,-0.374784,0.93696,0,-0.374784,0.93696,0,-0.374784,0.93696,0,-0.374784,0.93696,0,-0.374784,0,0,0,0,0,0,0,0,0,0,0,0,0,0,0,0,0,0,0,0,0,17.92,0,0,17.92,0,0,0,0,-17.92,0,0,0,0,0,0,-17.92,0,0,-17.92,0,0,0,0,0,0,0,0,0,0,0,0,0,0,0,0,0,0,0,0
1728658392000,,0.93696,0,-0.374784,0.93696,0,-0.374784,0.93696,0,-0.374784,0.93696,0,-0.374784,0.93696,0,-0.374784,0.93696,0,-0.374784,0.93696,0,-0.374784,0.93696,0,-0.374784,0.93696,0,-0.374784,0.93696,0,-0.374784,0.93696,0,-0.374784,0.93696,0,-0.374784,0.93696,0,-0.374784,0.93696,0,-0.374784,0.93696,0,-0.374784,0.93696,0,-0.374784,0.93696,0,-0.374784,0.93696,0,-0.374784,0.93696,0,-0.374784,0.93696,0,-0.374784,0.93696,0,-0.374784,0.93696,0,-0.374784,0.93696,0,-0.374784,0.93696,0,-0.374784,0.93696,0,-0.374784,0.93696,0,-0.374784,0.93696,0,-0.374784,0.93696,0,-0.374784,0.93696,0,-0.374784,0.93696,0,-0.374784,0.93696,0,-0.374784,0.93696,0,-0.374784,0.93696,0,-0.374784,0.93696,0,-0.374784,0.93696,0,-0.374784,0.93696,0,-0.374784,0.93696,0,-0.374784,0.93696,0,-0.374784,0.93696,0,-0.374784,0.93696,0,-0.374784,0.93696,0,-0.374784,0.93696,0,-0.374784,0.93696,0,-0.374784,0.93696,0,-0.374784,0.93696,0,-0.374784,0.93696,0,-0.374784,0.93696,0,-0.374784,0.93696,0,-0.374784,0.93696,0,-0.374784,0.93696,0,-0.374784,0.93696,0,-0.374784,0.93696,0,-0.374784,0.93696,0,-0.374784,0.93696,0,-0.374784,0.93696,0,-0.374784,0.93696,0,-0.374784,0.93696,0,-0.374784,0.93696,0,-0.374784,0.93696,0,-0.374784,0.93696,0,-0.374784,0.93696,0,-0.374784,0.93696,0,-0.374784,0.93696,0,-0.374784,0.93696,0,-0.374784,0.93696,0,-0.374784,0.93696,0,-0.374784,0.93696,0,-0.374784,0.93696,0,-0.374784,0.93696,0,-0.374784,0.93696,0,-0.374784,0.93696,0,-0.374784,0.93696,0,-0.374784,0.93696,0,-0.374784,0.93696,0,-0.374784,0.93696,0,-0.374784,0.93696,0,-0.374784,0.93696,0,-0.374784,0.93696,0,-0.374784,0.93696,0,-0.374784,0.93696,0,-0.374784,0,0,0,0,0,0,0,0,0,0,0,0,17.92,0,0,17.92,0,0,17.92,0,0,0,0,0,0,0,0,0,0,0,0,0,0,0,0,0,0,0,0,0,0,0,0,0,0,0,0,0,0,0,0,0,0,0,0,0,0,0,0,0
1728658393000,,0.93696,0,-0.374784,0.93696,0,-0.374784,0.93696,0,-0.374784,0.93696,0,-0.374784,0.93696,0,-0.374784,0.93696,0,-0.374784,0.93696,0,-0.374784,0.93696,0,-0.374784,0.93696,0,-0.374784,0.93696,0,-0.374784,0.93696,0,-0.374784,0.93696,0,-0.374784,0.93696,0,-0.374784,0.93696,0,-0.374784,0.93696,0,-0.374784,0.93696,0,-0.374784,0.93696,0,-0.374784,0.93696,0,-0.374784,0.93696,0,-0.374784,0.93696,0,-0.374784,0.93696,0,-0.374784,0.93696,0,-0.374784,0.93696,0,-0.374784,0.93696,0,-0.374784,0.93696,0,-0.374784,0.93696,0,-0.374784,0.93696,0,-0.374784,0.93696,0,-0.374784,0.93696,0,-0.374784,0.93696,0,-0.374784,0.93696,0,-0.374784,0.93696,0,-0.374784,0.93696,0,-0.374784,0.93696,0,-0.374784,0.93696,0,-0.374784,0.93696,0,-0.374784,0.93696,0,-0.374784,0.93696,0,-0.374784,0.93696,0,-0.374784,0.93696,0,-0.374784,0.93696,0,-0.374784,0.93696,0,-0.374784,0.93696,0,-0.374784,0.93696,0,-0.374784,0.93696,0,-0.374784,0.93696,0,-0.374784,0.93696,0,-0.374784,0.93696,0,-0.374784,0.93696,0,-0.374784,0.93696,0,-0.374784,0.93696,0,-0.374784,0.93696,0,-0.374784,0.93696,0,-0.374784,0.93696,0,-0.374784,0.93696,0,-0.374784,0.93696,0,-0.374784,0.93696,0,-0.374784,0.93696,0,-0.374784,0.93696,0,-0.374784,0.93696,0,-0.374784,0.93696,0,-0.374784,0.93696,0,-0.374784,0.93696,0,-0.374784,0.93696,0,-0.374784,0.93696,0,-0.374784,0.93696,0,-0.374784,0.93696,0,-0.374784,0.93696,0,-0.374784,0.93696,0,-0.374784,0.93696,0,-0.374784,0.93696,0,-0.374784,0.93696,0,-0.374784,0.93696,0,-0.374784,0.93696,0,-0.374784,0.93696,0,-0.374784,0.93696,0,-0.374784,0.93696,0,-0.374784,0.93696,0,-0.374784,0.93696,0,-0.374784,0.93696,0,-0.374784,0,0,0,0,0,0,0,0,0,0,0,0,0,0,0,0,0,0,0,0,0,0,0,0,0,0,0,0,0,0,0,0,0,0,0,0,0,0,0,0,0,0,0,0,0,0,0,0,0,0,0,0,0,0,0,0,0,0,0,0
1728658394000,,0.93696,0,-0.374784,0.93696,0,-0.374784,0.93696,0,-0.374784,0.93696,0,-0.374784,0.93696,0,-0.374784,0.93696,0,-0.374784,0.93696,0,-0.374784,0.93696,0,-0.374784,0.93696,0,-0.374784,0.93696,0,-0.374784,0.93696,0,-0.374784,0.93696,0,-0.374784,0.93696,0,-0.374784,0.93696,0,-0.374784,0.93696,0,-0.374784,0.93696,0,-0.374784,0.93696,0,-0.374784,0.93696,0,-0.374784,0.93696,0,-0.374784,0.93696,0,-0.374784,0.93696,0,-0.374784,0.93696,0,-0.374784,0.93696,0,-0.374784,0.93696,0,-0.374784,0.93696,0,-0.374784,0.93696,0,-0.374784,0.93696,0,-0.374784,0.93696,0,-0.374784,0.93696,0,-0.374784,0.93696,0,-0.374784,0.93696,0,-0.374784,0.93696,0,-0.374784,0.93696,0,-0.374784,0.93696,0,-0.374784,0.93696,0,-0.374784,0.93696,0,-0.374784,0.93696,0,-0.374784,0.93696,0,-0.374784,0.93696,0,-0.374784,0.93696,0,-0.374784,0.93696,0,-0.374784,0.93696,0,-0.374784,0.93696,0,-0.374784,0.93696,0,-0.374784,0.93696,-0.187392,-0.374784,0.93696,0,-0.374784,0.93696,0,-0.374784,0.93696,0,-0.374784,0.93696,0,-0.374784,0.93696,0,-0.374784,0.93696,0,-0.374784,0.93696,0,-0.374784,0.93696,0,-0.374784,0.93696,0,-0.374784,0.93696,0,-0.374784,0.93696,0,-0.374784,0.93696,0,-0.374784,0.93696,0,-0.374784,0.93696,0,-0.374784,0.93696,0,-0.374784,0.93696,0,-0.374784,0.93696,0,-0.374784,0.93696,0,-0.374784,0.93696,0,-0.374784,0.93696,0,-0.374784,0.93696,0,-0.374784,0.93696,0,-0.374784,0.93696,0,-0.374784,0.93696,0,-0.374784,0.93696,0,-0.374784,0.93696,0,-0.374784,0.93696,0,-0.374784,0.93696,0,-0.374784,0.93696,0,-0.374784,0.93696,0,-0.374784,0.93696,0,-0.374784,0.93696,0,-0.374784,0.93696,0,-0.374784,0.93696,0,-0.374784,0.93696,0,-0.374784,0,0,0,0,0,0,0,0,0,0,0,0,0,0,0,0,0,0,0,0,0,0,0,0,0,0,0,0,0,0,-17.92,0,0,0,0,0,0,0,0,0,0,0,0,0,0,0,0,0,0,0,0,0,0,0,0,0,0,0,0,0
1728658395000,,0.93696,0,-0.374784,0.93696,0,-0.374784,0.93696,0,-0.374784,0.93696,0,-0.374784,0.93696,-0.187392,-0.374784,0.93696,-0.187392,-0.374784,0.93696,-0.187392,-0.374784,0.93696,-0.187392,-0.374784,0.93696,-0.187392,-0.374784,0.93696,-0.187392,-0.374784,0.93696,-0.187392,-0.374784,0.93696,-0.187392,-0.374784,0.93696,-0.187392,-0.374784,0.93696,-0.187392,-0.374784,0.93696,-0.187392,-0.374784,0.93696,-0.187392,-0.374784,0.93696,-0.187392,-0.374784,0.93696,-0.187392,-0.374784,0.93696,-0.187392,-0.374784,0.93696,-0.187392,-0.374784,0.93696,-0.187392,-0.374784,0.93696,-0.187392,-0.374784,0.93696,-0.187392,-0.374784,0.93696,-0.187392,-0.374784,0.93696,-0.187392,-0.374784,0.93696,-0.187392,-0.374784,0.93696,-0.187392,-0.374784,0.93696,-0.187392,-0.374784,0.93696,-0.187392,-0.374784,0.93696,-0.187392,-0.374784,0.93696,-0.187392,-0.374784,0.93696,-0.187392,-0.374784,0.93696,-0.187392,-0.374784,0.93696,-0.187392,-0.374784,0.93696,-0.187392,-0.374784,0.93696,-0.187392,-0.374784,0.93696,-0.187392,-0.374784,0.93696,-0.187392,-0.374784,0.93696,-0.187392,-0.374784,0.93696,-0.187392,-0.374784,0.93696,-0.187392,-0.374784,0.93696,-0.187392,-0.374784,0.93696,-0.187392,-0.374784,0.93696,-0.187392,-0.374784,0.93696,-0.187392,-0.374784,0.93696,-0.187392,-0.374784,0.93696,-0.187392,-0.374784,0.93696,-0.187392,-0.374784,0.93696,-0.187392,-0.374784,0.93696,-0.187392,-0.374784,0.93696,-0.187392,-0.374784,0.93696,-0.187392,-0.374784,0.93696,-0.187392,-0.374784,0.93696,-0.187392,-0.374784,0.93696,-0.187392,-0.374784,0.93696,-0.187392,-0.374784,0.93696,-0.187392,-0.374784,0.93696,-0.187392,-0.374784,0.93696,-0.187392,-0.374784,0.93696,-0.187392,-0.374784,0.93696,-0.187392,-0.374784,0.93696,-0.187392,-0.374784,0.93696,-0.187392,-0.374784,0.93696,-0.187392,-0.374784,0.93696,-0.187392,-0.374784,0.93696,-0.187392,-0.374784,0.93696,-0.187392,-0.374784,0.93696,-0.187392,-0.374784,0.93696,-0.187392,-0.374784,0.93696,-0.187392,-0.374784,0.93696,-0.187392,-0.374784,0.93696,-0.187392,-0.374784,0.93696,-0.187392,-0.374784,0.93696,-0.187392,-0.374784,0.93696,-0.187392,-0.374784,0.93696,-0.187392,-0.374784,0.93696,-0.187392,-0.374784,0.93696,-0.187392,-0.374784,0.93696,-0.187392,-0.374784,0.93696,-0.187392,-0.374784,0,0,0,0,0,0,0,0,0,0,0,0,0,0,0,0,0,0,0,0,0,0,0,0,0,0,0,0,0,0,0,0,0,0,0,0,0,0,0,0,0,0,0,0,0,0,0,0,0,0,0,0,0,0,0,0,0,0,0,0
1728658396000,,0.93696,-0.187392,-0.374784,0.93696,-0.187392,-0.374784,0.93696,-0.187392,-0.374784,0.93696,-0.187392,-0.374784,0.93696,-0.187392,-0.374784,0.93696,-0.187392,-0.374784,0.93696,-0.187392,-0.374784,0.93696,-0.187392,-0.374784,0.93696,-0.187392,-0.374784,0.93696,-0.187392,-0.374784,0.93696,-0.187392,-0.374784,0.93696,-0.187392,-0.374784,0.93696,-0.187392,-0.374784,0.93696,-0.187392,-0.374784,0.93696,-0.187392,-0.374784,0.93696,-0.187392,-0.374784,0.93696,-0.187392,-0.374784,0.93696,-0.187392,-0.374784,0.93696,-0.187392,-0.374784,0.93696,-0.187392,-0.374784,0.93696,-0.187392,-0.374784,0.93696,-0.187392,-0.374784,0.93696,-0.187392,-0.374784,0.93696,-0.187392,-0.374784,0.93696,-0.187392,-0.374784,0.93696,-0.187392,-0.374784,0.93696,-0.187392,-0.374784,0.93696,-0.187392,-0.374784,0.93696,-0.187392,-0.374784,0.93696,-0.187392,-0.374784,0.93696,-0.187392,-0.374784,0.93696,-0.187392,-0.374784,0.93696,-0.187392,-0.374784,0.93696,-0.187392,-0.374784,0.93696,-0.187392,-0.374784,0.93696,-0.187392,-0.374784,0.93696,-0.187392,-0.374784,0.93696,-0.187392,-0.374784,0.93696,-0.187392,-0.374784,0.93696,-0.187392,-0.374784,0.93696,-0.187392,-0.374784,0.93696,-0.187392,-0.374784,0.93696,-0.187392,-0.374784,0.93696,-0.187392,-0.374784,0.93696,-0.187392,-0.374784,0.93696,-0.187392,-0.374784,0.93696,-0.187392,-0.374784,0.93696,-0.187392,-0.374784,0.93696,-0.187392,-0.374784,0.93696,-0.187392,-0.374784,0.93696,-0.187392,-0.374784,0.93696,-0.187392,-0.374784,0.93696,-0.187392,-0.374784,0.93696,-0.187392,-0.374784,0.93696,-0.187392,-0.374784,0.93696,-0.187392,-0.374784,0.93696,-0.187392,-0.374784,0.93696,-0.187392,-0.374784,0.93696,-0.187392,-0.374784,0.93696,-0.187392,-0.374784,0.93696,-0.187392,-0.374784,0.93696,-0.187392,-0.374784,0.93696,-0.187392,-0.374784,0.93696,-0.187392,-0.374784,0.93696,-0.187392,-0.374784,0.93696,-0.187392,-0.374784,0.93696,-0.187392,-0.374784,0.93696,-0.187392,-0.374784,0.93696,-0.187392,-0.374784,0.93696,-0.187392,-0.374784,0.93696,-0.187392,-0.374784,0.93696,-0.187392,-0.374784,0.93696,-0.187392,-0.374784,0.93696,-0.187392,-0.374784,0.93696,-0.187392,-0.374784,0.93696,-0.187392,-0.374784,0.93696,-0.187392,-0.374784,0.93696,-0.187392,-0.374784,0.93696,-0.187392,-0.374784,0.93696,-0.187392,-0.374784,0,0,0,0,0,0,0,0,0,0,0,0,0,0,0,0,0,0,0,0,0,0,0,0,0,0,0,0,0,0,0,0,0,0,0,0,0,0,0,0,0,0,0,0,0,-17.92,0,0,0,0,0,0,0,0,0,0,0,0,0,0
1728658397000,,0.93696,-0.187392,-0.374784,0.93696,-0.187392,-0.374784,0.93696,-0.187392,-0.374784,0.93696,-0.187392,-0.374784,0.93696,-0.187392,-0.374784,0.93696,-0.187392,-0.374784,0.93696,-0.187392,-0.374784,0.93696,-0.187392,-0.374784,0.93696,-0.187392,-0.374784,0.93696,-0.187392,-0.374784,0.93696,-0.187392,-0.374784,0.93696,-0.187392,-0.374784,0.93696,-0.187392,-0.374784,0.93696,-0.187392,-0.374784,0.93696,-0.187392,-0.374784,0.93696,-0.187392,-0.374784,0.93696,-0.187392,-0.374784,0.93696,-0.187392,-0.374784,0.93696,-0.187392,-0.374784,0.93696,-0.187392,-0.374784,0.93696,-0.187392,-0.374784,0.93696,-0.187392,-0.374784,0.93696,-0.187392,-0.374784,0.93696,-0.187392,-0.374784,0.93696,-0.187392,-0.374784,0.93696,-0.187392,-0.374784,0.93696,-0.187392,-0.374784,0.93696,-0.187392,-0.374784,0.93696,-0.187392,-0.374784,0.93696,-0.187392,-0.374784,0.93696,-0.187392,-0.374784,0.93696,-0.187392,-0.374784,0.93696,-0.187392,-0.374784,0.93696,-0.187392,-0.374784,0.93696,-0.187392,-0.374784,0.93696,-0.187392,-0.374784,0.93696,-0.187392,-0.374784,0.93696,-0.187392,-0.374784,0.93696,-0.187392,-0.374784,0.93696,0,-0.374784,0.93696,0,-0.374784,0.93696,0,-0.374784,0.93696,0,-0.374784,0.93696,0,-0.374784,0.93696,0,-0.374784,0.93696,-0.187392,-0.374784,0.93696,0,-0.374784,0.93696,0,-0.374784,0.93696,0,-0.374784,0.93696,0,-0.374784,0.93696,0,-0.374784,0.93696,0,-0.374784,0.93696,0,-0.374784,0.93696,0,-0.374784,0.93696,0,-0.374784,0.93696,0,-0.374784,0.93696,-0.187392,-0.374784,0.93696,0,-0.374784,0.93696,0,-0.562176,0.93696,0,-0.374784,0.93696,0,-0.374784,0.93696,0,-0.562176,0.93696,0,-0.374784,0.93696,0,-0.562176,0.93696,0,-0.562176,0.93696,0,-0.374784,0.93696,0,-0.562176,0.93696,0,-0.374784,0.93696,0,-0.374784,0.93696,0,-0.374784,0.93696,0,-0.374784,0.93696,0,-0.374784,0.93696,0,-0.562176,0.93696,0,-0.374784,0.93696,0,-0.374784,0.93696,0,-0.374784,0.93696,0,-0.374784,0.93696,0,-0.374784,0.93696,0,-0.374784,0.93696,0,-0.374784,0,0,0,0,0,0,0,0,0,0,0,0,0,0,0,0,0,0,0,0,0,0,0,0,0,0,0,17.92,0,0,17.92,0,0,17.92,0,0,17.92,0,0,17.92,0,0,17.92,0,0,17.92,0,0,17.92,0,0,17.92,0,0,17.92,0,0,17.92,0,0
