Timestamp,gyro_x,gyro_y,gyro_z
1728658339050.0,-17.92,17.92,0.0
1728658339100.0,0.0,17.92,0.0
1728658339150.0,0.0,17.92,0.0
1728658339200.0,0.0,17.92,0.0
1728658339250.0,0.0,0.0,0.0
1728658339300.0,0.0,0.0,0.0
1728658339350.0,0.0,0.0,0.0
1728658339400.0,0.0,0.0,0.0
1728658339450.0,0.0,0.0,0.0
1728658339500.0,0.0,0.0,0.0
1728658339550.0,0.0,0.0,0.0
1728658339600.0,-17.92,0.0,0.0
1728658339650.0,0.0,0.0,0.0
1728658339700.0,0.0,0.0,0.0
1728658339750.0,0.0,0.0,0.0
1728658339800.0,0.0,17.92,0.0
1728658339850.0,-35.84,0.0,0.0
1728658339900.0,-17.92,17.92,0.0
1728658339950.0,-17.92,17.92,-17.92
1728658340000.0,0.0,0.0,0.0
1728658340050.0,0.0,17.92,0.0
1728658340100.0,0.0,0.0,0.0
1728658340150.0,17.92,0.0,0.0
1728658340200.0,0.0,0.0,0.0
1728658340250.0,0.0,0.0,0.0
1728658340300.0,0.0,0.0,0.0
1728658340350.0,0.0,0.0,0.0
1728658340400.0,0.0,0.0,0.0
1728658340450.0,0.0,0.0,0.0
1728658340500.0,0.0,0.0,0.0
1728658340550.0,0.0,0.0,0.0
1728658340600.0,0.0,0.0,0.0
1728658340650.0,0.0,0.0,0.0
1728658340700.0,0.0,0.0,0.0
1728658340750.0,0.0,0.0,0.0
1728658340800.0,0.0,0.0,0.0
1728658340850.0,0.0,0.0,0.0
1728658340900.0,0.0,0.0,0.0
1728658340950.0,0.0,0.0,0.0
1728658341000.0,0.0,0.0,0.0
1728658341050.0,0.0,0.0,0.0
1728658341100.0,17.92,0.0,0.0
1728658341150.0,17.92,0.0,0.0
1728658341200.0,0.0,0.0,0.0
1728658341250.0,17.92,0.0,0.0
1728658341300.0,0.0,0.0,0.0
1728658341350.0,0.0,0.0,0.0
1728658341400.0,0.0,0.0,0.0
1728658341450.0,0.0,0.0,0.0
1728658341500.0,0.0,0.0,0.0
1728658341550.0,0.0,0.0,0.0
1728658341600.0,0.0,0.0,0.0
1728658341650.0,0.0,0.0,0.0
1728658341700.0,0.0,0.0,0.0
1728658341750.0,0.0,0.0,0.0
1728658341800.0,0.0,0.0,0.0
1728658341850.0,0.0,0.0,0.0
1728658341900.0,17.92,0.0,0.0
1728658341950.0,17.92,0.0,0.0
1728658342000.0,17.92,0.0,0.0
1728658342050.0,17.92,0.0,0.0
1728658342100.0,0.0,0.0,0.0
1728658342150.0,0.0,0.0,0.0
1728658342200.0,-17.92,0.0,0.0
1728658342250.0,-17.92,0.0,0.0
1728658342300.0,-17.92,0.0,0.0
1728658342350.0,0.0,0.0,0.0
1728658342400.0,-17.92,0.0,0.0
1728658342450.0,-17.92,0.0,0.0
1728658342500.0,0.0,0.0,0.0
1728658342550.0,0.0,0.0,0.0
1728658342600.0,17.92,0.0,0.0
1728658342650.0,0.0,0.0,0.0
1728658342700.0,0.0,0.0,-17.92
1728658342750.0,0.0,0.0,0.0
1728658342800.0,0.0,0.0,0.0
1728658342850.0,0.0,0.0,0.0
1728658342900.0,-17.92,0.0,0.0
1728658342950.0,-17.92,0.0,0.0
1728658343000.0,-17.92,0.0,0.0
1728658343050.0,-17.92,0.0,0.0
1728658343100.0,-17.92,0.0,0.0
1728658343150.0,0.0,0.0,0.0
1728658343200.0,0.0,0.0,0.0
1728658343250.0,0.0,0.0,0.0
1728658343300.0,0.0,0.0,0.0
1728658343350.0,0.0,0.0,0.0
1728658343400.0,0.0,0.0,0.0
1728658343450.0,0.0,0.0,0.0
1728658343500.0,0.0,0.0,0.0
1728658343550.0,0.0,0.0,0.0
1728658343600.0,0.0,0.0,0.0
1728658343650.0,0.0,0.0,0.0
1728658343700.0,0.0,0.0,0.0
1728658343750.0,0.0,0.0,0.0
1728658343800.0,0.0,0.0,0.0
1728658343850.0,0.0,0.0,0.0
1728658343900.0,0.0,0.0,0.0
1728658343950.0,0.0,0.0,0.0
1728658344000.0,0.0,0.0,0.0
1728658344050.0,0.0,0.0,0.0
1728658344100.0,0.0,0.0,0.0
1728658344150.0,0.0,0.0,0.0
1728658344200.0,0.0,0.0,0.0
1728658344250.0,0.0,0.0,0.0
1728658344300.0,0.0,0.0,0.0
1728658344350.0,0.0,0.0,0.0
1728658344400.0,0.0,0.0,0.0
1728658344450.0,0.0,0.0,0.0
1728658344500.0,0.0,0.0,0.0
1728658344550.0,0.0,0.0,0.0
1728658344600.0,0.0,0.0,0.0
1728658344650.0,0.0,0.0,0.0
1728658344700.0,17.92,0.0,0.0
1728658344750.0,17.92,0.0,0.0
1728658344800.0,0.0,0.0,0.0
1728658344850.0,0.0,0.0,0.0
1728658344900.0,0.0,0.0,0.0
1728658344950.0,0.0,0.0,0.0
1728658345000.0,17.92,0.0,0.0
1728658345050.0,17.92,0.0,0.0
1728658345100.0,17.92,0.0,0.0
1728658345150.0,0.0,0.0,0.0
1728658345200.0,17.92,0.0,0.0
1728658345250.0,17.92,0.0,0.0
1728658345300.0,0.0,0.0,0.0
1728658345350.0,0.0,0.0,0.0
1728658345400.0,0.0,0.0,0.0
1728658345450.0,0.0,0.0,0.0
1728658345500.0,0.0,0.0,0.0
1728658345550.0,0.0,0.0,0.0
1728658345600.0,0.0,0.0,0.0
1728658345650.0,0.0,0.0,0.0
1728658345700.0,0.0,0.0,0.0
1728658345750.0,0.0,0.0,0.0
1728658345800.0,0.0,0.0,0.0
1728658345850.0,0.0,0.0,0.0
1728658345900.0,0.0,0.0,0.0
1728658345950.0,0.0,0.0,0.0
1728658346000.0,0.0,0.0,0.0
1728658346050.0,0.0,0.0,0.0
1728658346100.0,0.0,0.0,0.0
1728658346150.0,0.0,0.0,0.0
1728658346200.0,0.0,0.0,0.0
1728658346250.0,0.0,0.0,0.0
1728658346300.0,0.0,0.0,0.0
1728658346350.0,0.0,0.0,0.0
1728658346400.0,0.0,0.0,0.0
1728658346450.0,0.0,0.0,0.0
1728658346500.0,0.0,0.0,0.0
1728658346550.0,0.0,0.0,0.0
1728658346600.0,0.0,0.0,0.0
1728658346650.0,0.0,0.0,0.0
1728658346700.0,0.0,0.0,0.0
1728658346750.0,0.0,0.0,0.0
1728658346800.0,0.0,0.0,0.0
1728658346850.0,0.0,0.0,0.0
1728658346900.0,0.0,0.0,0.0
1728658346950.0,0.0,0.0,0.0
1728658347000.0,17.92,0.0,0.0
1728658347050.0,17.92,0.0,0.0
1728658347100.0,17.92,0.0,0.0
1728658347150.0,0.0,0.0,0.0
1728658347200.0,0.0,0.0,0.0
1728658347250.0,0.0,0.0,0.0
1728658347300.0,0.0,0.0,0.0
1728658347350.0,0.0,0.0,0.0
1728658347400.0,0.0,0.0,0.0
1728658347450.0,0.0,0.0,0.0
1728658347500.0,0.0,0.0,0.0
1728658347550.0,0.0,0.0,0.0
1728658347600.0,0.0,0.0,0.0
1728658347650.0,0.0,0.0,0.0
1728658347700.0,0.0,0.0,0.0
1728658347750.0,0.0,0.0,0.0
1728658347800.0,0.0,0.0,0.0
1728658347850.0,0.0,0.0,0.0
1728658347900.0,0.0,0.0,0.0
1728658347950.0,0.0,0.0,0.0
1728658348000.0,0.0,0.0,0.0
1728658348050.0,0.0,0.0,0.0
1728658348100.0,0.0,0.0,0.0
1728658348150.0,0.0,0.0,0.0
1728658348200.0,0.0,0.0,0.0
1728658348250.0,0.0,0.0,0.0
1728658348300.0,0.0,0.0,0.0
1728658348350.0,0.0,0.0,0.0
1728658348400.0,0.0,0.0,0.0
1728658348450.0,0.0,0.0,0.0
1728658348500.0,0.0,0.0,0.0
1728658348550.0,0.0,0.0,0.0
1728658348600.0,0.0,0.0,0.0
1728658348650.0,0.0,0.0,0.0
1728658348700.0,0.0,0.0,0.0
1728658348750.0,0.0,0.0,0.0
1728658348800.0,0.0,0.0,0.0
1728658348850.0,0.0,0.0,0.0
1728658348900.0,0.0,0.0,0.0
1728658348950.0,0.0,0.0,0.0
1728658349000.0,0.0,0.0,0.0
1728658349050.0,0.0,0.0,0.0
1728658349100.0,0.0,0.0,0.0
1728658349150.0,0.0,0.0,0.0
1728658349200.0,0.0,0.0,0.0
1728658349250.0,0.0,0.0,0.0
1728658349300.0,0.0,0.0,0.0
1728658349350.0,0.0,0.0,0.0
1728658349400.0,0.0,0.0,0.0
1728658349450.0,0.0,0.0,0.0
1728658349500.0,0.0,0.0,0.0
1728658349550.0,0.0,0.0,0.0
1728658349600.0,0.0,0.0,0.0
1728658349650.0,0.0,0.0,0.0
1728658349700.0,0.0,0.0,0.0
1728658349750.0,0.0,0.0,0.0
1728658349800.0,0.0,0.0,0.0
1728658349850.0,0.0,0.0,0.0
1728658349900.0,0.0,0.0,0.0
1728658349950.0,0.0,0.0,0.0
1728658350000.0,0.0,0.0,0.0
1728658350050.0,0.0,0.0,0.0
1728658350100.0,0.0,0.0,0.0
1728658350150.0,0.0,0.0,0.0
1728658350200.0,0.0,0.0,0.0
1728658350250.0,0.0,0.0,0.0
1728658350300.0,0.0,0.0,0.0
1728658350350.0,-17.92,0.0,0.0
1728658350400.0,-17.92,0.0,-17.92
1728658350450.0,-17.92,0.0,-17.92
1728658350500.0,-35.84,0.0,-17.92
1728658350550.0,-35.84,17.92,-17.92
1728658350600.0,-35.84,17.92,-17.92
1728658350650.0,-53.76,17.92,-17.92
1728658350700.0,-53.76,17.92,0.0
1728658350750.0,-53.76,17.92,0.0
1728658350800.0,-35.84,17.92,0.0
1728658350850.0,-35.84,17.92,0.0
1728658350900.0,-35.84,17.92,0.0
1728658350950.0,-35.84,17.92,0.0
1728658351000.0,-35.84,17.92,0.0
1728658351050.0,-35.84,17.92,0.0
1728658351100.0,-35.84,17.92,0.0
1728658351150.0,-35.84,35.84,0.0
1728658351200.0,-35.84,35.84,17.92
1728658351250.0,-35.84,35.84,17.92
1728658351300.0,-35.84,17.92,17.92
1728658351350.0,-17.92,17.92,17.92
1728658351400.0,-17.92,17.92,17.92
1728658351450.0,-17.92,17.92,17.92
1728658351500.0,-17.92,0.0,35.84
1728658351550.0,-17.92,0.0,35.84
1728658351600.0,-17.92,-17.92,35.84
1728658351650.0,-17.92,-17.92,35.84
1728658351700.0,-17.92,-17.92,35.84
1728658351750.0,-17.92,-17.92,35.84
1728658351800.0,-17.92,-17.92,17.92
1728658351850.0,-17.92,0.0,35.84
1728658351900.0,-17.92,0.0,35.84
1728658351950.0,-17.92,0.0,35.84
1728658352000.0,-17.92,0.0,35.84
1728658352050.0,-17.92,0.0,35.84
1728658352100.0,-17.92,0.0,35.84
1728658352150.0,-17.92,0.0,35.84
1728658352200.0,-35.84,0.0,35.84
1728658352250.0,-35.84,0.0,17.92
1728658352300.0,-35.84,0.0,17.92
1728658352350.0,-35.84,17.92,17.92
1728658352400.0,-35.84,17.92,35.84
1728658352450.0,-35.84,0.0,35.84
1728658352500.0,-53.76,0.0,35.84
1728658352550.0,-53.76,0.0,35.84
1728658352600.0,-53.76,0.0,35.84
1728658352650.0,-53.76,0.0,35.84
1728658352700.0,-53.76,17.92,35.84
1728658352750.0,-53.76,17.92,35.84
1728658352800.0,-53.76,17.92,35.84
1728658352850.0,-53.76,0.0,35.84
1728658352900.0,-53.76,0.0,35.84
1728658352950.0,-53.76,0.0,35.84
1728658353000.0,-53.76,0.0,35.84
1728658353050.0,-35.84,0.0,35.84
1728658353100.0,-35.84,0.0,17.92
1728658353150.0,-35.84,0.0,17.92
1728658353200.0,-35.84,0.0,17.92
1728658353250.0,-35.84,0.0,17.92
1728658353300.0,-53.76,0.0,17.92
1728658353350.0,-53.76,17.92,17.92
1728658353400.0,-53.76,17.92,17.92
1728658353450.0,-53.76,17.92,0.0
1728658353500.0,-53.76,17.92,0.0
1728658353550.0,-35.84,17.92,0.0
1728658353600.0,-17.92,17.92,0.0
1728658353650.0,-17.92,17.92,0.0
1728658353700.0,-17.92,17.92,0.0
1728658353750.0,-35.84,35.84,0.0
1728658353800.0,-35.84,35.84,0.0
1728658353850.0,-35.84,53.76,0.0
1728658353900.0,-17.92,71.68,17.92
1728658353950.0,-17.92,71.68,0.0
1728658354000.0,0.0,71.68,0.0
1728658354050.0,0.0,71.68,17.92
1728658354100.0,0.0,89.6,17.92
1728658354150.0,17.92,89.6,17.92
1728658354200.0,17.92,89.6,17.92
1728658354250.0,35.84,89.6,17.92
1728658354300.0,35.84,89.6,0.0
1728658354350.0,53.76,107.52,0.0
1728658354400.0,53.76,107.52,0.0
1728658354450.0,53.76,89.6,0.0
1728658354500.0,53.76,89.6,17.92
1728658354550.0,53.76,89.6,0.0
1728658354600.0,35.84,71.68,0.0
1728658354650.0,53.76,53.76,0.0
1728658354700.0,53.76,35.84,0.0
1728658354750.0,35.84,35.84,0.0
1728658354800.0,35.84,35.84,0.0
1728658354850.0,17.92,17.92,17.92
1728658354900.0,17.92,17.92,0.0
1728658354950.0,0.0,0.0,0.0
1728658355000.0,0.0,0.0,17.92
1728658355050.0,-17.92,0.0,0.0
1728658355100.0,-17.92,0.0,0.0
1728658355150.0,0.0,0.0,0.0
1728658355200.0,0.0,0.0,0.0
1728658355250.0,17.92,0.0,-17.92
1728658355300.0,17.92,0.0,0.0
1728658355350.0,0.0,0.0,0.0
1728658355400.0,0.0,0.0,0.0
1728658355450.0,0.0,0.0,0.0
1728658355500.0,0.0,0.0,0.0
1728658355550.0,0.0,0.0,0.0
1728658355600.0,0.0,0.0,0.0
1728658355650.0,0.0,-17.92,0.0
1728658355700.0,0.0,-17.92,0.0
1728658355750.0,-17.92,-17.92,0.0
1728658355800.0,-17.92,-17.92,0.0
1728658355850.0,-17.92,-17.92,17.92
1728658355900.0,-17.92,-35.84,17.92
1728658355950.0,-17.92,-35.84,17.92
1728658356000.0,-17.92,-35.84,0.0
1728658356050.0,-17.92,-53.76,0.0
1728658356100.0,-17.92,-53.76,0.0
1728658356150.0,-17.92,-71.68,0.0
1728658356200.0,-17.92,-71.68,0.0
1728658356250.0,-17.92,-71.68,0.0
1728658356300.0,-17.92,-89.6,0.0
1728658356350.0,-17.92,-89.6,-17.92
1728658356400.0,-17.92,-89.6,-17.92
1728658356450.0,-17.92,-89.6,-17.92
1728658356500.0,-17.92,-71.68,-17.92
1728658356550.0,-17.92,-71.68,-17.92
1728658356600.0,-17.92,-71.68,-17.92
1728658356650.0,-17.92,-71.68,-17.92
1728658356700.0,-17.92,-71.68,-17.92
1728658356750.0,-17.92,-71.68,-17.92
1728658356800.0,-17.92,-71.68,-17.92
1728658356850.0,0.0,-53.76,-17.92
1728658356900.0,0.0,-53.76,-17.92
1728658356950.0,0.0,-53.76,-17.92
1728658357000.0,0.0,-35.84,-17.92
1728658357050.0,0.0,-35.84,-17.92
1728658357100.0,17.92,-17.92,-17.92
1728658357150.0,17.92,-17.92,-17.92
1728658357200.0,17.92,-17.92,-17.92
1728658357250.0,17.92,-17.92,0.0
1728658357300.0,17.92,-17.92,0.0
1728658357350.0,17.92,-17.92,0.0
1728658357400.0,0.0,-17.92,0.0
1728658357450.0,0.0,0.0,0.0
1728658357500.0,0.0,0.0,0.0
1728658357550.0,0.0,0.0,0.0
1728658357600.0,0.0,0.0,0.0
1728658357650.0,0.0,0.0,0.0
1728658357700.0,0.0,0.0,0.0
1728658357750.0,0.0,17.92,0.0
1728658357800.0,0.0,17.92,0.0
1728658357850.0,0.0,35.84,0.0
1728658357900.0,17.92,35.84,0.0
1728658357950.0,17.92,53.76,0.0
1728658358000.0,17.92,53.76,17.92
1728658358050.0,17.92,53.76,17.92
1728658358100.0,17.92,53.76,17.92
1728658358150.0,17.92,53.76,17.92
1728658358200.0,35.84,71.68,17.92
1728658358250.0,17.92,89.6,17.92
1728658358300.0,0.0,107.52,35.84
1728658358350.0,0.0,125.44,35.84
1728658358400.0,0.0,125.44,17.92
1728658358450.0,17.92,125.44,17.92
1728658358500.0,17.92,125.44,17.92
1728658358550.0,17.92,107.52,17.92
1728658358600.0,17.92,89.6,0.0
1728658358650.0,35.84,89.6,0.0
1728658358700.0,53.76,71.68,0.0
1728658358750.0,35.84,53.76,0.0
1728658358800.0,35.84,53.76,0.0
1728658358850.0,17.92,35.84,0.0
1728658358900.0,17.92,35.84,0.0
1728658358950.0,17.92,17.92,0.0
1728658359000.0,17.92,17.92,0.0
1728658359050.0,0.0,0.0,0.0
1728658359100.0,-17.92,0.0,0.0
1728658359150.0,-17.92,-17.92,0.0
1728658359200.0,-17.92,-35.84,0.0
1728658359250.0,-17.92,-53.76,0.0
1728658359300.0,-35.84,-53.76,0.0
1728658359350.0,-35.84,-71.68,0.0
1728658359400.0,-35.84,-89.6,-17.92
1728658359450.0,-35.84,-89.6,-17.92
1728658359500.0,-53.76,-107.52,-17.92
1728658359550.0,-35.84,-107.52,-17.92
1728658359600.0,-35.84,-125.44,-35.84
1728658359650.0,-17.92,-125.44,-35.84
1728658359700.0,-17.92,-125.44,-35.84
1728658359750.0,0.0,-125.44,-53.76
1728658359800.0,0.0,-125.44,-53.76
1728658359850.0,0.0,-107.52,-53.76
1728658359900.0,0.0,-89.6,-53.76
1728658359950.0,0.0,-71.68,-35.84
1728658360000.0,0.0,-71.68,-35.84
1728658360050.0,0.0,-53.76,-35.84
1728658360100.0,0.0,-53.76,-35.84
1728658360150.0,0.0,-35.84,-17.92
1728658360200.0,0.0,-35.84,-17.92
1728658360250.0,-17.92,-17.92,-17.92
1728658360300.0,-17.92,-17.92,0.0
1728658360350.0,-17.92,-17.92,0.0
1728658360400.0,-17.92,0.0,0.0
1728658360450.0,-17.92,0.0,0.0
1728658360500.0,-17.92,0.0,0.0
1728658360550.0,-17.92,0.0,0.0
1728658360600.0,-17.92,0.0,17.92
1728658360650.0,-17.92,0.0,17.92
1728658360700.0,0.0,17.92,17.92
1728658360750.0,0.0,17.92,17.92
1728658360800.0,0.0,17.92,0.0
1728658360850.0,0.0,17.92,0.0
1728658360900.0,0.0,0.0,0.0
1728658360950.0,0.0,0.0,0.0
1728658361000.0,0.0,0.0,0.0
1728658361050.0,17.92,17.92,0.0
1728658361100.0,0.0,17.92,0.0
1728658361150.0,0.0,17.92,0.0
1728658361200.0,0.0,0.0,0.0
1728658361250.0,0.0,0.0,0.0
1728658361300.0,0.0,0.0,0.0
1728658361350.0,0.0,0.0,0.0
1728658361400.0,-17.92,0.0,0.0
1728658361450.0,-17.92,0.0,0.0
1728658361500.0,-17.92,0.0,0.0
1728658361550.0,0.0,0.0,0.0
1728658361600.0,0.0,0.0,0.0
1728658361650.0,0.0,0.0,0.0
1728658361700.0,0.0,0.0,0.0
1728658361750.0,0.0,0.0,0.0
1728658361800.0,17.92,0.0,-17.92
1728658361850.0,35.84,0.0,-17.92
1728658361900.0,53.76,0.0,-17.92
1728658361950.0,53.76,0.0,-17.92
1728658362000.0,71.68,0.0,-17.92
1728658362050.0,53.76,0.0,-17.92
1728658362100.0,53.76,-17.92,-17.92
1728658362150.0,53.76,-17.92,-35.84
1728658362200.0,53.76,-17.92,-35.84
1728658362250.0,53.76,-17.92,-35.84
1728658362300.0,35.84,-17.92,-35.84
1728658362350.0,53.76,-17.92,-35.84
1728658362400.0,53.76,0.0,-35.84
1728658362450.0,71.68,0.0,-17.92
1728658362500.0,71.68,0.0,-17.92
1728658362550.0,71.68,-17.92,-17.92
1728658362600.0,71.68,-17.92,-17.92
1728658362650.0,89.6,-17.92,-17.92
1728658362700.0,89.6,0.0,-17.92
1728658362750.0,89.6,-17.92,-17.92
1728658362800.0,107.52,-17.92,-17.92
1728658362850.0,107.52,0.0,-17.92
1728658362900.0,107.52,0.0,-35.84
1728658362950.0,107.52,0.0,-35.84
1728658363000.0,107.52,17.92,-35.84
1728658363050.0,89.6,17.92,-35.84
1728658363100.0,89.6,17.92,-35.84
1728658363150.0,89.6,17.92,-35.84
1728658363200.0,89.6,0.0,-17.92
1728658363250.0,71.68,0.0,-17.92
1728658363300.0,71.68,0.0,-17.92
1728658363350.0,71.68,0.0,-17.92
1728658363400.0,53.76,-17.92,-17.92
1728658363450.0,35.84,-17.92,-17.92
1728658363500.0,17.92,-17.92,0.0
1728658363550.0,17.92,-17.92,0.0
1728658363600.0,35.84,0.0,-17.92
1728658363650.0,35.84,17.92,-17.92
1728658363700.0,17.92,17.92,-17.92
1728658363750.0,35.84,17.92,-17.92
1728658363800.0,17.92,17.92,-17.92
1728658363850.0,17.92,17.92,-17.92
1728658363900.0,17.92,17.92,-17.92
1728658363950.0,0.0,0.0,0.0
1728658364000.0,0.0,0.0,0.0
1728658364050.0,-17.92,0.0,0.0
1728658364100.0,0.0,-17.92,0.0
1728658364150.0,-17.92,-17.92,-17.92
1728658364200.0,-17.92,-17.92,0.0
1728658364250.0,-17.92,-35.84,17.92
1728658364300.0,0.0,-17.92,0.0
1728658364350.0,-17.92,-17.92,0.0
1728658364400.0,0.0,0.0,17.92
1728658364450.0,0.0,0.0,0.0
1728658364500.0,17.92,-17.92,0.0
1728658364550.0,17.92,0.0,0.0
1728658364600.0,17.92,0.0,0.0
1728658364650.0,17.92,0.0,0.0
1728658364700.0,17.92,17.92,0.0
1728658364750.0,17.92,0.0,0.0
1728658364800.0,17.92,0.0,0.0
1728658364850.0,17.92,0.0,0.0
1728658364900.0,17.92,-17.92,-17.92
1728658364950.0,17.92,-35.84,-17.92
1728658365000.0,53.76,-35.84,-17.92
1728658365050.0,17.92,0.0,0.0
1728658365100.0,0.0,35.84,-17.92
1728658365150.0,0.0,35.84,0.0
1728658365200.0,0.0,35.84,0.0
1728658365250.0,0.0,35.84,0.0
1728658365300.0,-17.92,17.92,0.0
1728658365350.0,-17.92,17.92,0.0
1728658365400.0,-17.92,0.0,0.0
1728658365450.0,-17.92,0.0,0.0
1728658365500.0,0.0,-17.92,0.0
1728658365550.0,0.0,-35.84,0.0
1728658365600.0,0.0,-35.84,0.0
1728658365650.0,0.0,-71.68,17.92
1728658365700.0,0.0,-71.68,17.92
1728658365750.0,0.0,-53.76,17.92
1728658365800.0,17.92,0.0,17.92
1728658365850.0,17.92,0.0,17.92
1728658365900.0,17.92,0.0,17.92
1728658365950.0,35.84,17.92,17.92
1728658366000.0,35.84,17.92,0.0
1728658366050.0,53.76,35.84,0.0
1728658366100.0,53.76,35.84,-17.92
1728658366150.0,53.76,17.92,-17.92
1728658366200.0,53.76,17.92,-17.92
1728658366250.0,35.84,17.92,-17.92
1728658366300.0,35.84,0.0,-17.92
1728658366350.0,35.84,0.0,-17.92
1728658366400.0,35.84,0.0,-17.92
1728658366450.0,17.92,-17.92,0.0
1728658366500.0,0.0,0.0,0.0
1728658366550.0,0.0,0.0,-17.92
1728658366600.0,0.0,0.0,-17.92
1728658366650.0,17.92,17.92,0.0
1728658366700.0,17.92,17.92,0.0
1728658366750.0,0.0,17.92,0.0
1728658366800.0,0.0,17.92,0.0
1728658366850.0,0.0,17.92,0.0
1728658366900.0,0.0,17.92,0.0
1728658366950.0,0.0,17.92,0.0
1728658367000.0,0.0,17.92,0.0
1728658367050.0,0.0,17.92,0.0
1728658367100.0,-17.92,0.0,0.0
1728658367150.0,-17.92,0.0,0.0
1728658367200.0,-17.92,0.0,0.0
1728658367250.0,-17.92,0.0,0.0
1728658367300.0,-17.92,-17.92,0.0
1728658367350.0,0.0,-17.92,0.0
1728658367400.0,17.92,-17.92,0.0
1728658367450.0,0.0,0.0,0.0
1728658367500.0,-17.92,0.0,0.0
1728658367550.0,0.0,0.0,0.0
1728658367600.0,17.92,0.0,0.0
1728658367650.0,17.92,0.0,-17.92
1728658367700.0,35.84,0.0,-17.92
1728658367750.0,35.84,0.0,-17.92
1728658367800.0,35.84,17.92,-17.92
1728658367850.0,53.76,17.92,-17.92
1728658367900.0,53.76,17.92,-17.92
1728658367950.0,53.76,17.92,-17.92
1728658368000.0,53.76,0.0,-17.92
1728658368050.0,53.76,0.0,-17.92
1728658368100.0,53.76,0.0,-17.92
1728658368150.0,53.76,0.0,-17.92
1728658368200.0,53.76,0.0,-35.84
1728658368250.0,35.84,0.0,-35.84
1728658368300.0,17.92,0.0,0.0
1728658368350.0,0.0,17.92,0.0
1728658368400.0,17.92,17.92,0.0
1728658368450.0,17.92,17.92,0.0
1728658368500.0,17.92,17.92,0.0
1728658368550.0,17.92,17.92,0.0
1728658368600.0,17.92,17.92,0.0
1728658368650.0,17.92,17.92,0.0
1728658368700.0,0.0,0.0,0.0
1728658368750.0,0.0,0.0,0.0
1728658368800.0,0.0,0.0,0.0
1728658368850.0,0.0,0.0,0.0
1728658368900.0,0.0,0.0,0.0
1728658368950.0,0.0,0.0,17.92
1728658369000.0,0.0,0.0,17.92
1728658369050.0,-17.92,0.0,0.0
1728658369100.0,-17.92,0.0,0.0
1728658369150.0,0.0,0.0,0.0
1728658369200.0,0.0,0.0,0.0
1728658369250.0,0.0,0.0,0.0
1728658369300.0,0.0,0.0,0.0
1728658369350.0,0.0,0.0,0.0
1728658369400.0,0.0,0.0,0.0
1728658369450.0,0.0,0.0,0.0
1728658369500.0,0.0,0.0,0.0
1728658369550.0,0.0,0.0,0.0
1728658369600.0,0.0,0.0,0.0
1728658369650.0,0.0,0.0,0.0
1728658369700.0,0.0,0.0,0.0
1728658369750.0,0.0,0.0,0.0
1728658369800.0,0.0,0.0,0.0
1728658369850.0,0.0,0.0,0.0
1728658369900.0,0.0,0.0,0.0
1728658369950.0,0.0,0.0,0.0
1728658370000.0,0.0,0.0,0.0
1728658370050.0,0.0,0.0,0.0
1728658370100.0,0.0,0.0,0.0
1728658370150.0,0.0,0.0,0.0
1728658370200.0,-17.92,0.0,0.0
1728658370250.0,0.0,0.0,0.0
1728658370300.0,0.0,0.0,0.0
1728658370350.0,0.0,0.0,0.0
1728658370400.0,-17.92,0.0,0.0
1728658370450.0,-17.92,0.0,0.0
1728658370500.0,-17.92,0.0,0.0
1728658370550.0,-17.92,0.0,0.0
1728658370600.0,-17.92,0.0,0.0
1728658370650.0,-17.92,0.0,0.0
1728658370700.0,-17.92,0.0,0.0
1728658370750.0,-17.92,0.0,0.0
1728658370800.0,0.0,0.0,0.0
1728658370850.0,0.0,0.0,0.0
1728658370900.0,0.0,0.0,0.0
1728658370950.0,0.0,0.0,0.0
1728658371000.0,0.0,0.0,0.0
1728658371050.0,0.0,0.0,0.0
1728658371100.0,0.0,0.0,0.0
1728658371150.0,0.0,0.0,0.0
1728658371200.0,-17.92,0.0,0.0
1728658371250.0,-17.92,0.0,0.0
1728658371300.0,-17.92,0.0,17.92
1728658371350.0,-17.92,0.0,17.92
1728658371400.0,-17.92,0.0,0.0
1728658371450.0,-17.92,0.0,0.0
1728658371500.0,-17.92,0.0,0.0
1728658371550.0,-17.92,17.92,0.0
1728658371600.0,-17.92,0.0,0.0
1728658371650.0,0.0,17.92,0.0
1728658371700.0,0.0,17.92,0.0
1728658371750.0,0.0,17.92,0.0
1728658371800.0,17.92,17.92,0.0
1728658371850.0,17.92,17.92,0.0
1728658371900.0,0.0,17.92,0.0
1728658371950.0,17.92,17.92,0.0
1728658372000.0,0.0,17.92,0.0
1728658372050.0,0.0,17.92,0.0
1728658372100.0,-17.92,0.0,0.0
1728658372150.0,-17.92,0.0,0.0
1728658372200.0,-17.92,0.0,17.92
1728658372250.0,-17.92,-17.92,0.0
1728658372300.0,-17.92,-17.92,0.0
1728658372350.0,0.0,0.0,0.0
1728658372400.0,0.0,-17.92,0.0
1728658372450.0,0.0,-17.92,0.0
1728658372500.0,0.0,-17.92,0.0
1728658372550.0,-17.92,-17.92,0.0
1728658372600.0,-17.92,-17.92,0.0
1728658372650.0,-17.92,0.0,0.0
1728658372700.0,-17.92,-17.92,0.0
1728658372750.0,0.0,0.0,0.0
1728658372800.0,0.0,0.0,0.0
1728658372850.0,0.0,0.0,0.0
1728658372900.0,0.0,0.0,0.0
1728658372950.0,0.0,0.0,0.0
1728658373000.0,0.0,0.0,0.0
1728658373050.0,0.0,0.0,0.0
1728658373100.0,0.0,0.0,0.0
1728658373150.0,0.0,0.0,0.0
1728658373200.0,0.0,0.0,0.0
1728658373250.0,0.0,0.0,0.0
1728658373300.0,0.0,0.0,-17.92
1728658373350.0,17.92,0.0,0.0
1728658373400.0,0.0,0.0,0.0
1728658373450.0,17.92,0.0,0.0
1728658373500.0,0.0,0.0,0.0
1728658373550.0,0.0,0.0,0.0
1728658373600.0,17.92,0.0,0.0
1728658373650.0,17.92,0.0,0.0
1728658373700.0,0.0,0.0,0.0
1728658373750.0,0.0,0.0,0.0
1728658373800.0,0.0,0.0,0.0
1728658373850.0,0.0,0.0,0.0
1728658373900.0,0.0,0.0,0.0
1728658373950.0,0.0,0.0,0.0
1728658374000.0,0.0,0.0,0.0
1728658374050.0,0.0,0.0,0.0
1728658374100.0,0.0,0.0,0.0
1728658374150.0,0.0,0.0,0.0
1728658374200.0,0.0,0.0,0.0
1728658374250.0,0.0,0.0,0.0
1728658374300.0,0.0,0.0,0.0
1728658374350.0,-17.92,0.0,0.0
1728658374400.0,-17.92,0.0,0.0
1728658374450.0,0.0,0.0,0.0
1728658374500.0,0.0,0.0,0.0
1728658374550.0,0.0,0.0,0.0
1728658374600.0,0.0,0.0,0.0
1728658374650.0,0.0,0.0,0.0
1728658374700.0,0.0,0.0,0.0
1728658374750.0,0.0,0.0,0.0
1728658374800.0,0.0,0.0,0.0
1728658374850.0,0.0,0.0,0.0
1728658374900.0,17.92,0.0,0.0
1728658374950.0,0.0,0.0,0.0
1728658375000.0,0.0,0.0,0.0
1728658375050.0,0.0,0.0,0.0
1728658375100.0,17.92,0.0,0.0
1728658375150.0,17.92,0.0,0.0
1728658375200.0,17.92,0.0,0.0
1728658375250.0,0.0,0.0,0.0
1728658375300.0,0.0,0.0,0.0
1728658375350.0,0.0,0.0,0.0
1728658375400.0,0.0,0.0,0.0
1728658375450.0,0.0,0.0,0.0
1728658375500.0,0.0,0.0,0.0
1728658375550.0,0.0,0.0,0.0
1728658375600.0,0.0,0.0,0.0
1728658375650.0,0.0,0.0,0.0
1728658375700.0,0.0,0.0,0.0
1728658375750.0,0.0,0.0,0.0
1728658375800.0,0.0,0.0,0.0
1728658375850.0,0.0,0.0,0.0
1728658375900.0,-17.92,0.0,0.0
1728658375950.0,-17.92,0.0,0.0
1728658376000.0,-17.92,0.0,0.0
1728658376050.0,-17.92,0.0,0.0
1728658376100.0,0.0,0.0,0.0
1728658376150.0,0.0,0.0,0.0
1728658376200.0,0.0,0.0,0.0
1728658376250.0,0.0,0.0,0.0
1728658376300.0,0.0,0.0,0.0
1728658376350.0,0.0,0.0,0.0
1728658376400.0,0.0,0.0,0.0
1728658376450.0,0.0,0.0,0.0
1728658376500.0,0.0,0.0,0.0
1728658376550.0,0.0,0.0,0.0
1728658376600.0,0.0,0.0,0.0
1728658376650.0,0.0,0.0,0.0
1728658376700.0,0.0,0.0,0.0
1728658376750.0,0.0,0.0,0.0
1728658376800.0,0.0,0.0,0.0
1728658376850.0,0.0,0.0,0.0
1728658376900.0,0.0,0.0,0.0
1728658376950.0,0.0,0.0,0.0
1728658377000.0,0.0,0.0,0.0
1728658377050.0,0.0,0.0,0.0
1728658377100.0,0.0,0.0,0.0
1728658377150.0,0.0,0.0,0.0
1728658377200.0,0.0,0.0,0.0
1728658377250.0,0.0,0.0,0.0
1728658377300.0,0.0,0.0,0.0
1728658377350.0,0.0,0.0,0.0
1728658377400.0,0.0,0.0,0.0
1728658377450.0,0.0,0.0,0.0
1728658377500.0,-17.92,0.0,0.0
1728658377550.0,-17.92,0.0,0.0
1728658377600.0,-17.92,0.0,0.0
1728658377650.0,-17.92,0.0,0.0
1728658377700.0,-17.92,0.0,0.0
1728658377750.0,-17.92,0.0,0.0
1728658377800.0,-17.92,0.0,0.0
1728658377850.0,-17.92,0.0,0.0
1728658377900.0,0.0,0.0,0.0
1728658377950.0,0.0,0.0,0.0
1728658378000.0,0.0,0.0,0.0
1728658378050.0,0.0,0.0,0.0
1728658378100.0,0.0,0.0,0.0
1728658378150.0,0.0,0.0,0.0
1728658378200.0,0.0,0.0,0.0
1728658378250.0,0.0,0.0,0.0
1728658378300.0,0.0,0.0,0.0
1728658378350.0,0.0,0.0,0.0
1728658378400.0,0.0,0.0,0.0
1728658378450.0,0.0,0.0,0.0
1728658378500.0,0.0,0.0,0.0
1728658378550.0,0.0,0.0,0.0
1728658378600.0,0.0,0.0,0.0
1728658378650.0,0.0,0.0,0.0
1728658378700.0,0.0,0.0,0.0
1728658378750.0,0.0,0.0,0.0
1728658378800.0,0.0,0.0,0.0
1728658378850.0,0.0,0.0,0.0
1728658378900.0,0.0,0.0,0.0
1728658378950.0,0.0,0.0,0.0
1728658379000.0,0.0,0.0,0.0
1728658379050.0,0.0,0.0,0.0
1728658379100.0,0.0,0.0,0.0
1728658379150.0,0.0,0.0,0.0
1728658379200.0,0.0,0.0,0.0
1728658379250.0,0.0,0.0,0.0
1728658379300.0,0.0,0.0,0.0
1728658379350.0,0.0,0.0,0.0
1728658379400.0,0.0,0.0,0.0
1728658379450.0,0.0,0.0,0.0
1728658379500.0,0.0,0.0,0.0
1728658379550.0,0.0,0.0,0.0
1728658379600.0,0.0,0.0,0.0
1728658379650.0,0.0,0.0,0.0
1728658379700.0,0.0,0.0,0.0
1728658379750.0,0.0,0.0,0.0
1728658379800.0,0.0,0.0,0.0
1728658379850.0,0.0,0.0,0.0
1728658379900.0,0.0,0.0,0.0
1728658379950.0,0.0,-17.92,0.0
1728658380000.0,0.0,-17.92,0.0
1728658380050.0,0.0,-17.92,0.0
1728658380100.0,17.92,-17.92,0.0
1728658380150.0,17.92,-17.92,0.0
1728658380200.0,17.92,0.0,-17.92
1728658380250.0,17.92,-17.92,0.0
1728658380300.0,17.92,0.0,-17.92
1728658380350.0,35.84,0.0,-17.92
1728658380400.0,35.84,0.0,-17.92
1728658380450.0,53.76,0.0,-17.92
1728658380500.0,35.84,0.0,-17.92
1728658380550.0,35.84,0.0,0.0
1728658380600.0,35.84,0.0,0.0
1728658380650.0,17.92,0.0,0.0
1728658380700.0,17.92,0.0,0.0
1728658380750.0,0.0,0.0,0.0
1728658380800.0,0.0,0.0,0.0
1728658380850.0,-17.92,0.0,0.0
1728658380900.0,-17.92,0.0,0.0
1728658380950.0,-17.92,0.0,0.0
1728658381000.0,-17.92,0.0,0.0
1728658381050.0,-17.92,17.92,0.0
1728658381100.0,-17.92,0.0,0.0
1728658381150.0,0.0,17.92,0.0
1728658381200.0,0.0,17.92,-17.92
1728658381250.0,17.92,17.92,0.0
1728658381300.0,0.0,0.0,0.0
1728658381350.0,17.92,0.0,0.0
1728658381400.0,17.92,0.0,0.0
1728658381450.0,17.92,0.0,0.0
1728658381500.0,17.92,0.0,0.0
1728658381550.0,0.0,0.0,0.0
1728658381600.0,0.0,0.0,0.0
1728658381650.0,0.0,0.0,0.0
1728658381700.0,0.0,0.0,0.0
1728658381750.0,0.0,0.0,0.0
1728658381800.0,0.0,0.0,0.0
1728658381850.0,0.0,0.0,0.0
1728658381900.0,17.92,0.0,0.0
1728658381950.0,17.92,0.0,-17.92
1728658382000.0,17.92,0.0,-17.92
1728658382050.0,17.92,0.0,0.0
1728658382100.0,17.92,0.0,0.0
1728658382150.0,35.84,0.0,0.0
1728658382200.0,17.92,0.0,0.0
1728658382250.0,17.92,0.0,0.0
1728658382300.0,0.0,0.0,0.0
1728658382350.0,0.0,0.0,0.0
1728658382400.0,0.0,0.0,0.0
1728658382450.0,-17.92,0.0,0.0
1728658382500.0,-17.92,0.0,0.0
1728658382550.0,-17.92,0.0,0.0
1728658382600.0,-17.92,0.0,0.0
1728658382650.0,-35.84,0.0,0.0
1728658382700.0,-35.84,0.0,0.0
1728658382750.0,-35.84,0.0,0.0
1728658382800.0,-35.84,0.0,0.0
1728658382850.0,-35.84,0.0,0.0
1728658382900.0,-17.92,17.92,0.0
1728658382950.0,-17.92,0.0,0.0
1728658383000.0,-17.92,0.0,0.0
1728658383050.0,-17.92,0.0,0.0
1728658383100.0,0.0,0.0,0.0
1728658383150.0,0.0,0.0,0.0
1728658383200.0,0.0,0.0,0.0
1728658383250.0,0.0,0.0,0.0
1728658383300.0,0.0,0.0,0.0
1728658383350.0,0.0,0.0,0.0
1728658383400.0,0.0,0.0,0.0
1728658383450.0,-17.92,0.0,17.92
1728658383500.0,-17.92,0.0,0.0
1728658383550.0,0.0,0.0,0.0
1728658383600.0,-17.92,17.92,0.0
1728658383650.0,0.0,17.92,0.0
1728658383700.0,0.0,17.92,0.0
1728658383750.0,0.0,17.92,0.0
1728658383800.0,0.0,17.92,0.0
1728658383850.0,0.0,17.92,0.0
1728658383900.0,0.0,0.0,0.0
1728658383950.0,0.0,0.0,0.0
1728658384000.0,0.0,0.0,0.0
1728658384050.0,0.0,0.0,0.0
1728658384100.0,0.0,0.0,0.0
1728658384150.0,0.0,0.0,0.0
1728658384200.0,-17.92,0.0,17.92
1728658384250.0,-17.92,0.0,17.92
1728658384300.0,0.0,0.0,17.92
1728658384350.0,-17.92,0.0,17.92
1728658384400.0,0.0,0.0,0.0
1728658384450.0,-17.92,0.0,0.0
1728658384500.0,0.0,0.0,0.0
1728658384550.0,0.0,0.0,0.0
1728658384600.0,0.0,0.0,0.0
1728658384650.0,0.0,0.0,0.0
1728658384700.0,0.0,0.0,0.0
1728658384750.0,0.0,0.0,0.0
1728658384800.0,0.0,0.0,0.0
1728658384850.0,0.0,0.0,0.0
1728658384900.0,0.0,0.0,0.0
1728658384950.0,0.0,0.0,0.0
1728658385000.0,0.0,0.0,0.0
1728658385050.0,0.0,0.0,0.0
1728658385100.0,0.0,0.0,0.0
1728658385150.0,0.0,0.0,0.0
1728658385200.0,0.0,0.0,0.0
1728658385250.0,0.0,0.0,0.0
1728658385300.0,0.0,0.0,0.0
1728658385350.0,0.0,0.0,0.0
1728658385400.0,0.0,0.0,0.0
1728658385450.0,0.0,0.0,0.0
1728658385500.0,0.0,0.0,0.0
1728658385550.0,0.0,0.0,0.0
1728658385600.0,0.0,0.0,0.0
1728658385650.0,0.0,0.0,0.0
1728658385700.0,0.0,0.0,0.0
1728658385750.0,0.0,0.0,-17.92
1728658385800.0,0.0,0.0,-17.92
1728658385850.0,0.0,0.0,0.0
1728658385900.0,0.0,0.0,0.0
1728658385950.0,0.0,0.0,0.0
1728658386000.0,0.0,0.0,0.0
1728658386050.0,0.0,0.0,0.0
1728658386100.0,0.0,0.0,0.0
1728658386150.0,0.0,0.0,0.0
1728658386200.0,0.0,0.0,0.0
1728658386250.0,0.0,0.0,0.0
1728658386300.0,0.0,0.0,0.0
1728658386350.0,-17.92,0.0,0.0
1728658386400.0,0.0,0.0,0.0
1728658386450.0,0.0,0.0,0.0
1728658386500.0,0.0,0.0,0.0
1728658386550.0,17.92,0.0,0.0
1728658386600.0,0.0,0.0,0.0
1728658386650.0,0.0,0.0,0.0
1728658386700.0,0.0,0.0,0.0
1728658386750.0,0.0,0.0,0.0
1728658386800.0,0.0,0.0,0.0
1728658386850.0,0.0,0.0,0.0
1728658386900.0,0.0,0.0,0.0
1728658386950.0,0.0,0.0,0.0
1728658387000.0,0.0,0.0,0.0
1728658387050.0,0.0,0.0,0.0
1728658387100.0,0.0,0.0,0.0
1728658387150.0,0.0,0.0,0.0
1728658387200.0,0.0,0.0,0.0
1728658387250.0,0.0,0.0,0.0
1728658387300.0,0.0,0.0,0.0
1728658387350.0,0.0,0.0,0.0
1728658387400.0,0.0,0.0,0.0
1728658387450.0,0.0,0.0,0.0
1728658387500.0,0.0,0.0,0.0
1728658387550.0,0.0,0.0,0.0
1728658387600.0,0.0,0.0,0.0
1728658387650.0,0.0,0.0,0.0
1728658387700.0,0.0,0.0,0.0
1728658387750.0,0.0,0.0,0.0
1728658387800.0,0.0,0.0,0.0
1728658387850.0,0.0,0.0,0.0
1728658387900.0,0.0,0.0,0.0
1728658387950.0,0.0,0.0,0.0
1728658388000.0,0.0,0.0,0.0
1728658388050.0,0.0,0.0,0.0
1728658388100.0,0.0,0.0,0.0
1728658388150.0,0.0,0.0,0.0
1728658388200.0,0.0,0.0,0.0
1728658388250.0,0.0,0.0,0.0
1728658388300.0,0.0,0.0,0.0
1728658388350.0,0.0,0.0,0.0
1728658388400.0,-17.92,0.0,0.0
1728658388450.0,0.0,0.0,0.0
1728658388500.0,0.0,0.0,0.0
1728658388550.0,0.0,0.0,0.0
1728658388600.0,0.0,0.0,0.0
1728658388650.0,0.0,0.0,0.0
1728658388700.0,0.0,0.0,0.0
1728658388750.0,0.0,0.0,0.0
1728658388800.0,0.0,0.0,0.0
1728658388850.0,0.0,0.0,0.0
1728658388900.0,0.0,0.0,0.0
1728658388950.0,0.0,0.0,0.0
1728658389000.0,0.0,0.0,0.0
1728658389050.0,0.0,0.0,0.0
1728658389100.0,17.92,0.0,0.0
1728658389150.0,17.92,0.0,-17.92
1728658389200.0,0.0,0.0,0.0
1728658389250.0,0.0,0.0,0.0
1728658389300.0,-17.92,0.0,0.0
1728658389350.0,-17.92,0.0,17.92
1728658389400.0,-17.92,0.0,17.92
1728658389450.0,-17.92,0.0,0.0
1728658389500.0,-17.92,0.0,0.0
1728658389550.0,-17.92,0.0,0.0
1728658389600.0,0.0,0.0,0.0
1728658389650.0,0.0,0.0,0.0
1728658389700.0,0.0,0.0,0.0
1728658389750.0,0.0,0.0,0.0
1728658389800.0,0.0,0.0,0.0
1728658389850.0,0.0,0.0,0.0
1728658389900.0,0.0,0.0,0.0
1728658389950.0,0.0,0.0,0.0
1728658390000.0,0.0,0.0,0.0
1728658390050.0,0.0,0.0,0.0
1728658390100.0,0.0,0.0,0.0
1728658390150.0,0.0,0.0,0.0
1728658390200.0,0.0,0.0,0.0
1728658390250.0,0.0,0.0,0.0
1728658390300.0,-17.92,0.0,0.0
1728658390350.0,-17.92,0.0,0.0
1728658390400.0,-17.92,0.0,0.0
1728658390450.0,0.0,0.0,0.0
1728658390500.0,0.0,0.0,0.0
1728658390550.0,0.0,0.0,0.0
1728658390600.0,0.0,0.0,0.0
1728658390650.0,0.0,0.0,0.0
1728658390700.0,0.0,0.0,0.0
1728658390750.0,0.0,0.0,0.0
1728658390800.0,0.0,0.0,0.0
1728658390850.0,0.0,0.0,0.0
1728658390900.0,0.0,0.0,0.0
1728658390950.0,0.0,0.0,-17.92
1728658391000.0,0.0,0.0,0.0
1728658391050.0,0.0,0.0,0.0
1728658391100.0,0.0,0.0,0.0
1728658391150.0,0.0,0.0,0.0
1728658391200.0,0.0,0.0,0.0
1728658391250.0,0.0,0.0,0.0
1728658391300.0,0.0,0.0,0.0
1728658391350.0,0.0,0.0,0.0
1728658391400.0,17.92,0.0,0.0
1728658391450.0,17.92,0.0,0.0
1728658391500.0,0.0,0.0,-17.92
1728658391550.0,0.0,0.0,0.0
1728658391600.0,0.0,0.0,0.0
1728658391650.0,-17.92,0.0,0.0
1728658391700.0,-17.92,0.0,0.0
1728658391750.0,0.0,0.0,0.0
1728658391800.0,0.0,0.0,0.0
1728658391850.0,0.0,0.0,0.0
1728658391900.0,0.0,0.0,0.0
1728658391950.0,0.0,0.0,0.0
1728658392000.0,0.0,0.0,0.0
1728658392050.0,0.0,0.0,0.0
1728658392100.0,0.0,0.0,0.0
1728658392150.0,0.0,0.0,0.0
1728658392200.0,0.0,0.0,0.0
1728658392250.0,17.92,0.0,0.0
1728658392300.0,17.92,0.0,0.0
1728658392350.0,17.92,0.0,0.0
1728658392400.0,0.0,0.0,0.0
1728658392450.0,0.0,0.0,0.0
1728658392500.0,0.0,0.0,0.0
1728658392550.0,0.0,0.0,0.0
1728658392600.0,0.0,0.0,0.0
1728658392650.0,0.0,0.0,0.0
1728658392700.0,0.0,0.0,0.0
1728658392750.0,0.0,0.0,0.0
1728658392800.0,0.0,0.0,0.0
1728658392850.0,0.0,0.0,0.0
1728658392900.0,0.0,0.0,0.0
1728658392950.0,0.0,0.0,0.0
1728658393000.0,0.0,0.0,0.0
1728658393050.0,0.0,0.0,0.0
1728658393100.0,0.0,0.0,0.0
1728658393150.0,0.0,0.0,0.0
1728658393200.0,0.0,0.0,0.0
1728658393250.0,0.0,0.0,0.0
1728658393300.0,0.0,0.0,0.0
1728658393350.0,0.0,0.0,0.0
1728658393400.0,0.0,0.0,0.0
1728658393450.0,0.0,0.0,0.0
1728658393500.0,0.0,0.0,0.0
1728658393550.0,0.0,0.0,0.0
1728658393600.0,0.0,0.0,0.0
1728658393650.0,0.0,0.0,0.0
1728658393700.0,0.0,0.0,0.0
1728658393750.0,0.0,0.0,0.0
1728658393800.0,0.0,0.0,0.0
1728658393850.0,0.0,0.0,0.0
1728658393900.0,0.0,0.0,0.0
1728658393950.0,0.0,0.0,0.0
1728658394000.0,0.0,0.0,0.0
1728658394050.0,0.0,0.0,0.0
1728658394100.0,0.0,0.0,0.0
1728658394150.0,0.0,0.0,0.0
1728658394200.0,0.0,0.0,0.0
1728658394250.0,0.0,0.0,0.0
1728658394300.0,0.0,0.0,0.0
1728658394350.0,0.0,0.0,0.0
1728658394400.0,0.0,0.0,0.0
1728658394450.0,0.0,0.0,0.0
1728658394500.0,0.0,0.0,0.0
1728658394550.0,-17.92,0.0,0.0
1728658394600.0,0.0,0.0,0.0
1728658394650.0,0.0,0.0,0.0
1728658394700.0,0.0,0.0,0.0
1728658394750.0,0.0,0.0,0.0
1728658394800.0,0.0,0.0,0.0
1728658394850.0,0.0,0.0,0.0
1728658394900.0,0.0,0.0,0.0
1728658394950.0,0.0,0.0,0.0
1728658395000.0,0.0,0.0,0.0
1728658395050.0,0.0,0.0,0.0
1728658395100.0,0.0,0.0,0.0
1728658395150.0,0.0,0.0,0.0
1728658395200.0,0.0,0.0,0.0
1728658395250.0,0.0,0.0,0.0
1728658395300.0,0.0,0.0,0.0
1728658395350.0,0.0,0.0,0.0
1728658395400.0,0.0,0.0,0.0
1728658395450.0,0.0,0.0,0.0
1728658395500.0,0.0,0.0,0.0
1728658395550.0,0.0,0.0,0.0
1728658395600.0,0.0,0.0,0.0
1728658395650.0,0.0,0.0,0.0
1728658395700.0,0.0,0.0,0.0
1728658395750.0,0.0,0.0,0.0
1728658395800.0,0.0,0.0,0.0
1728658395850.0,0.0,0.0,0.0
1728658395900.0,0.0,0.0,0.0
1728658395950.0,0.0,0.0,0.0
1728658396000.0,0.0,0.0,0.0
1728658396050.0,0.0,0.0,0.0
1728658396100.0,0.0,0.0,0.0
1728658396150.0,0.0,0.0,0.0
1728658396200.0,0.0,0.0,0.0
1728658396250.0,0.0,0.0,0.0
1728658396300.0,0.0,0.0,0.0
1728658396350.0,0.0,0.0,0.0
1728658396400.0,0.0,0.0,0.0
1728658396450.0,0.0,0.0,0.0
1728658396500.0,0.0,0.0,0.0
1728658396550.0,0.0,0.0,0.0
1728658396600.0,0.0,0.0,0.0
1728658396650.0,0.0,0.0,0.0
1728658396700.0,0.0,0.0,0.0
1728658396750.0,0.0,0.0,0.0
1728658396800.0,-17.92,0.0,0.0
1728658396850.0,0.0,0.0,0.0
1728658396900.0,0.0,0.0,0.0
1728658396950.0,0.0,0.0,0.0
1728658397000.0,0.0,0.0,0.0
1728658397050.0,0.0,0.0,0.0
1728658397100.0,0.0,0.0,0.0
1728658397150.0,0.0,0.0,0.0
1728658397200.0,0.0,0.0,0.0
1728658397250.0,0.0,0.0,0.0
1728658397300.0,0.0,0.0,0.0
1728658397350.0,0.0,0.0,0.0
1728658397400.0,0.0,0.0,0.0
1728658397450.0,0.0,0.0,0.0
1728658397500.0,17.92,0.0,0.0
1728658397550.0,17.92,0.0,0.0
1728658397600.0,17.92,0.0,0.0
1728658397650.0,17.92,0.0,0.0
1728658397700.0,17.92,0.0,0.0
1728658397750.0,17.92,0.0,0.0
1728658397800.0,17.92,0.0,0.0
1728658397850.0,17.92,0.0,0.0
1728658397900.0,17.92,0.0,0.0
1728658397950.0,17.92,0.0,0.0
1728658398000.0,17.92,0.0,0.0
1728658398050.0,0.0,0.0,0.0
1728658398100.0,0.0,0.0,0.0
1728658398150.0,0.0,0.0,0.0
1728658398200.0,17.92,0.0,0.0
1728658398250.0,17.92,0.0,0.0
1728658398300.0,17.92,0.0,0.0
1728658398350.0,35.84,0.0,-17.92
1728658398400.0,35.84,0.0,-17.92
1728658398450.0,35.84,0.0,-17.92
1728658398500.0,35.84,0.0,-17.92
1728658398550.0,53.76,0.0,-17.92
1728658398600.0,53.76,0.0,-35.84
1728658398650.0,53.76,0.0,-35.84
1728658398700.0,53.76,0.0,-35.84
1728658398750.0,53.76,0.0,-35.84
1728658398800.0,35.84,0.0,-35.84
1728658398850.0,53.76,0.0,-35.84
1728658398900.0,53.76,-17.92,-35.84
1728658398950.0,53.76,-17.92,-17.92
1728658399000.0,53.76,-17.92,-17.92
1728658399050.0,71.68,-17.92,0.0
1728658399100.0,53.76,-17.92,-17.92
1728658399150.0,53.76,0.0,0.0
1728658399200.0,35.84,0.0,0.0
1728658399250.0,35.84,17.92,-17.92
1728658399300.0,17.92,17.92,-17.92
1728658399350.0,17.92,17.92,-17.92
1728658399400.0,17.92,17.92,-17.92
1728658399450.0,35.84,17.92,-17.92
1728658399500.0,35.84,17.92,-17.92
1728658399550.0,35.84,0.0,-17.92
1728658399600.0,35.84,0.0,-17.92
1728658399650.0,35.84,0.0,-17.92
1728658399700.0,35.84,-17.92,0.0
1728658399750.0,35.84,-35.84,-17.92
1728658399800.0,17.92,-17.92,-17.92
1728658399850.0,53.76,-17.92,-17.92
1728658399900.0,35.84,-17.92,-35.84
1728658399950.0,53.76,-17.92,-17.92
1728658400000.0,35.84,0.0,-35.84
1728658400050.0,35.84,0.0,-35.84
1728658400100.0,17.92,17.92,-17.92
1728658400150.0,17.92,17.92,-17.92
1728658400200.0,0.0,17.92,0.0
1728658400250.0,0.0,17.92,0.0
1728658400300.0,0.0,0.0,0.0
1728658400350.0,-17.92,0.0,0.0
1728658400400.0,-17.92,0.0,0.0
1728658400450.0,-35.84,-17.92,0.0
1728658400500.0,-17.92,-17.92,0.0
1728658400550.0,0.0,0.0,0.0
1728658400600.0,0.0,0.0,0.0
1728658400650.0,0.0,0.0,0.0
1728658400700.0,0.0,0.0,0.0
1728658400750.0,17.92,0.0,0.0
1728658400800.0,0.0,0.0,0.0
1728658400850.0,0.0,0.0,0.0
1728658400900.0,0.0,0.0,0.0
1728658400950.0,0.0,-17.92,17.92
1728658401000.0,0.0,-17.92,17.92
1728658401050.0,17.92,-35.84,17.92
1728658401100.0,0.0,-17.92,0.0
1728658401150.0,0.0,0.0,0.0
1728658401200.0,17.92,17.92,0.0
1728658401250.0,0.0,17.92,-17.92
1728658401300.0,0.0,17.92,0.0
1728658401350.0,0.0,35.84,0.0
1728658401400.0,0.0,35.84,0.0
1728658401450.0,-17.92,35.84,0.0
1728658401500.0,-17.92,35.84,17.92
1728658401550.0,-35.84,35.84,17.92
1728658401600.0,-35.84,35.84,17.92
1728658401650.0,-53.76,17.92,35.84
1728658401700.0,-71.68,17.92,35.84
1728658401750.0,-89.6,17.92,35.84
1728658401800.0,-89.6,35.84,17.92
1728658401850.0,-89.6,53.76,17.92
1728658401900.0,-89.6,35.84,35.84
1728658401950.0,-107.52,35.84,35.84
1728658402000.0,-107.52,35.84,35.84
1728658402050.0,-107.52,35.84,35.84
1728658402100.0,-89.6,35.84,35.84
1728658402150.0,-89.6,35.84,35.84
1728658402200.0,-71.68,35.84,35.84
1728658402250.0,-71.68,35.84,35.84
1728658402300.0,-71.68,35.84,35.84
1728658402350.0,-53.76,17.92,35.84
1728658402400.0,-35.84,17.92,35.84
1728658402450.0,-35.84,17.92,35.84
1728658402500.0,-35.84,17.92,53.76
1728658402550.0,-35.84,17.92,53.76
1728658402600.0,-17.92,17.92,35.84
1728658402650.0,-17.92,0.0,35.84
1728658402700.0,0.0,0.0,35.84
1728658402750.0,0.0,-17.92,35.84
1728658402800.0,17.92,-17.92,35.84
1728658402850.0,17.92,-35.84,17.92
1728658402900.0,17.92,-35.84,17.92
1728658402950.0,17.92,-17.92,17.92
1728658403000.0,17.92,-17.92,17.92
1728658403050.0,0.0,0.0,17.92
1728658403100.0,0.0,0.0,17.92
1728658403150.0,-17.92,0.0,17.92
1728658403200.0,-17.92,0.0,17.92
1728658403250.0,-17.92,0.0,17.92
1728658403300.0,-35.84,0.0,17.92
1728658403350.0,-35.84,0.0,17.92
1728658403400.0,-17.92,0.0,17.92
1728658403450.0,-35.84,0.0,0.0
1728658403500.0,-17.92,17.92,0.0
1728658403550.0,0.0,35.84,-17.92
1728658403600.0,17.92,53.76,-35.84
1728658403650.0,17.92,53.76,-35.84
1728658403700.0,0.0,53.76,-35.84
1728658403750.0,0.0,71.68,-35.84
1728658403800.0,0.0,53.76,-17.92
1728658403850.0,0.0,35.84,-17.92
1728658403900.0,0.0,17.92,-17.92
1728658403950.0,0.0,0.0,0.0
1728658404000.0,17.92,0.0,0.0
1728658404050.0,35.84,17.92,0.0
1728658404100.0,35.84,0.0,0.0
1728658404150.0,17.92,0.0,0.0
1728658404200.0,0.0,0.0,17.92
1728658404250.0,0.0,0.0,35.84
1728658404300.0,-17.92,-17.92,35.84
1728658404350.0,-17.92,-17.92,35.84
1728658404400.0,0.0,-17.92,35.84
1728658404450.0,0.0,-17.92,35.84
1728658404500.0,-17.92,-17.92,35.84
1728658404550.0,-17.92,-17.92,17.92
1728658404600.0,0.0,-17.92,0.0
1728658404650.0,17.92,-17.92,-17.92
1728658404700.0,35.84,-17.92,-17.92
1728658404750.0,35.84,-17.92,-17.92
1728658404800.0,53.76,-17.92,-17.92
1728658404850.0,53.76,-17.92,-17.92
1728658404900.0,53.76,-35.84,-17.92
1728658404950.0,53.76,-17.92,-17.92
1728658405000.0,53.76,-17.92,-17.92
1728658405050.0,53.76,0.0,-17.92
1728658405100.0,53.76,0.0,-35.84
1728658405150.0,53.76,0.0,-35.84
1728658405200.0,35.84,0.0,-35.84
1728658405250.0,17.92,0.0,-35.84
1728658405300.0,17.92,17.92,-17.92
1728658405350.0,17.92,0.0,-17.92
1728658405400.0,17.92,0.0,0.0
1728658405450.0,17.92,0.0,0.0
1728658405500.0,17.92,0.0,0.0
1728658405550.0,0.0,0.0,0.0
1728658405600.0,0.0,0.0,0.0
1728658405650.0,-17.92,0.0,0.0
1728658405700.0,-17.92,0.0,0.0
1728658405750.0,-17.92,0.0,0.0
1728658405800.0,-35.84,-17.92,17.92
1728658405850.0,-53.76,-17.92,17.92
1728658405900.0,-53.76,-17.92,17.92
1728658405950.0,-71.68,-17.92,35.84
1728658406000.0,-71.68,-17.92,35.84
1728658406050.0,-71.68,-17.92,17.92
1728658406100.0,-71.68,-17.92,17.92
1728658406150.0,-89.6,-17.92,17.92
1728658406200.0,-71.68,-17.92,0.0
1728658406250.0,-71.68,-35.84,0.0
1728658406300.0,-53.76,-17.92,0.0
1728658406350.0,-53.76,-17.92,0.0
1728658406400.0,-53.76,-17.92,-17.92
1728658406450.0,-35.84,0.0,-17.92
1728658406500.0,-17.92,0.0,-17.92
1728658406550.0,17.92,0.0,-35.84
1728658406600.0,35.84,0.0,-35.84
1728658406650.0,17.92,0.0,-17.92
1728658406700.0,17.92,17.92,-17.92
1728658406750.0,17.92,17.92,-17.92
1728658406800.0,0.0,17.92,0.0
1728658406850.0,-17.92,17.92,0.0
1728658406900.0,-17.92,17.92,0.0
1728658406950.0,-17.92,17.92,0.0
1728658407000.0,-35.84,17.92,0.0
1728658407050.0,-35.84,17.92,17.92
1728658407100.0,-53.76,35.84,17.92
1728658407150.0,-71.68,35.84,17.92
1728658407200.0,-71.68,35.84,17.92
1728658407250.0,-71.68,35.84,35.84
1728658407300.0,-71.68,35.84,35.84
1728658407350.0,-71.68,35.84,35.84
1728658407400.0,-53.76,35.84,35.84
1728658407450.0,-17.92,35.84,35.84
1728658407500.0,0.0,35.84,35.84
1728658407550.0,17.92,35.84,35.84
1728658407600.0,35.84,35.84,17.92
1728658407650.0,53.76,35.84,17.92
1728658407700.0,71.68,35.84,0.0
1728658407750.0,107.52,35.84,0.0
1728658407800.0,161.28,35.84,-17.92
1728658407850.0,250.88,53.76,-35.84
1728658407900.0,358.4,53.76,-89.6
1728658407950.0,465.92,-17.92,-107.52
1728658408000.0,519.68,17.92,-179.2
1728658408050.0,268.8,-53.76,-107.52
1728658408100.0,250.88,-53.76,0.0
1728658408150.0,-232.96,53.76,71.68
1728658408200.0,286.72,358.4,-179.2
1728658408250.0,89.6,71.68,-89.6
1728658408300.0,107.52,17.92,-89.6
1728658408350.0,89.6,53.76,-53.76
1728658408400.0,71.68,-17.92,-17.92
1728658408450.0,53.76,-17.92,0.0
1728658408500.0,0.0,0.0,35.84
1728658408550.0,0.0,17.92,17.92
1728658408600.0,0.0,0.0,17.92
1728658408650.0,-17.92,0.0,17.92
1728658408700.0,-17.92,0.0,0.0
1728658408750.0,-35.84,0.0,17.92
1728658408800.0,0.0,35.84,17.92
1728658408850.0,-17.92,0.0,0.0
1728658408900.0,-17.92,17.92,0.0
1728658408950.0,-17.92,17.92,0.0
1728658409000.0,-17.92,17.92,0.0
1728658409050.0,-35.84,17.92,0.0
1728658409100.0,-17.92,35.84,0.0
1728658409150.0,-17.92,17.92,0.0
1728658409200.0,-17.92,17.92,0.0
1728658409250.0,-17.92,17.92,0.0
1728658409300.0,-53.76,35.84,0.0
1728658409350.0,-53.76,35.84,17.92
1728658409400.0,-35.84,53.76,17.92
1728658409450.0,-35.84,53.76,35.84
1728658409500.0,-53.76,89.6,35.84
1728658409550.0,-53.76,107.52,35.84
1728658409600.0,-17.92,125.44,17.92
1728658409650.0,-17.92,143.36,35.84
1728658409700.0,0.0,125.44,53.76
1728658409750.0,-17.92,107.52,71.68
1728658409800.0,-35.84,125.44,89.6
1728658409850.0,-17.92,107.52,89.6
1728658409900.0,17.92,107.52,53.76
1728658409950.0,35.84,107.52,35.84
1728658410000.0,35.84,71.68,17.92
1728658410050.0,35.84,71.68,35.84
1728658410100.0,35.84,53.76,35.84
1728658410150.0,17.92,35.84,35.84
1728658410200.0,17.92,17.92,17.92
1728658410250.0,35.84,0.0,17.92
1728658410300.0,17.92,0.0,17.92
1728658410350.0,0.0,-17.92,35.84
1728658410400.0,-35.84,-35.84,35.84
1728658410450.0,-35.84,-35.84,35.84
1728658410500.0,-53.76,-53.76,35.84
1728658410550.0,-53.76,-53.76,17.92
1728658410600.0,-53.76,-71.68,17.92
1728658410650.0,-53.76,-71.68,0.0
1728658410700.0,-35.84,-71.68,0.0
1728658410750.0,-35.84,-71.68,0.0
1728658410800.0,-35.84,-71.68,0.0
1728658410850.0,-17.92,-53.76,-17.92
1728658410900.0,-17.92,-53.76,-17.92
1728658410950.0,0.0,-53.76,-35.84
1728658411000.0,0.0,-35.84,-35.84
1728658411050.0,17.92,-35.84,-35.84
1728658411100.0,17.92,-17.92,-35.84
1728658411150.0,0.0,-17.92,-17.92
1728658411200.0,0.0,-17.92,0.0
1728658411250.0,0.0,-17.92,0.0
1728658411300.0,0.0,-17.92,17.92
1728658411350.0,0.0,-17.92,17.92
1728658411400.0,-17.92,-35.84,35.84
1728658411450.0,-35.84,-35.84,35.84
1728658411500.0,-35.84,-35.84,35.84
1728658411550.0,-53.76,-35.84,35.84
1728658411600.0,-71.68,-35.84,35.84
1728658411650.0,-71.68,-35.84,35.84
1728658411700.0,-89.6,-17.92,35.84
1728658411750.0,-89.6,0.0,35.84
1728658411800.0,-71.68,0.0,35.84
1728658411850.0,-35.84,0.0,17.92
1728658411900.0,-35.84,0.0,17.92
1728658411950.0,-35.84,17.92,17.92
1728658412000.0,-35.84,0.0,17.92
1728658412050.0,-35.84,0.0,17.92
1728658412100.0,-17.92,0.0,17.92
1728658412150.0,-17.92,17.92,17.92
1728658412200.0,-17.92,17.92,35.84
1728658412250.0,0.0,17.92,35.84
1728658412300.0,17.92,0.0,17.92
1728658412350.0,17.92,0.0,17.92
1728658412400.0,0.0,0.0,35.84
1728658412450.0,0.0,0.0,35.84
1728658412500.0,0.0,-17.92,35.84
1728658412550.0,17.92,-17.92,35.84
1728658412600.0,17.92,-17.92,17.92
1728658412650.0,0.0,-17.92,17.92
1728658412700.0,-17.92,-17.92,35.84
1728658412750.0,-17.92,-17.92,17.92
1728658412800.0,-35.84,-35.84,17.92
1728658412850.0,-35.84,-35.84,17.92
1728658412900.0,-35.84,-53.76,17.92
1728658412950.0,-35.84,-53.76,0.0
1728658413000.0,-17.92,-53.76,0.0
1728658413050.0,-17.92,-35.84,0.0
1728658413100.0,-17.92,-17.92,-17.92
1728658413150.0,0.0,-17.92,-17.92
1728658413200.0,-17.92,-17.92,-17.92
1728658413250.0,-17.92,0.0,-17.92
1728658413300.0,-35.84,0.0,-17.92
1728658413350.0,0.0,0.0,-17.92
1728658413400.0,-17.92,0.0,-17.92
1728658413450.0,0.0,0.0,-17.92
1728658413500.0,0.0,17.92,-17.92
1728658413550.0,0.0,17.92,-17.92
1728658413600.0,17.92,17.92,-17.92
1728658413650.0,17.92,17.92,0.0
1728658413700.0,17.92,17.92,0.0
1728658413750.0,0.0,17.92,0.0
1728658413800.0,0.0,0.0,0.0
1728658413850.0,0.0,0.0,0.0
1728658413900.0,0.0,0.0,0.0
1728658413950.0,0.0,17.92,0.0
1728658414000.0,-17.92,17.92,0.0
1728658414050.0,-17.92,17.92,0.0
1728658414100.0,-17.92,17.92,0.0
1728658414150.0,-35.84,17.92,0.0
1728658414200.0,-35.84,17.92,17.92
1728658414250.0,-35.84,17.92,17.92
1728658414300.0,-35.84,17.92,17.92
1728658414350.0,-35.84,17.92,17.92
1728658414400.0,-35.84,17.92,17.92
1728658414450.0,-35.84,17.92,17.92
1728658414500.0,-35.84,17.92,17.92
1728658414550.0,-53.76,17.92,17.92
1728658414600.0,-53.76,17.92,0.0
1728658414650.0,-53.76,17.92,0.0
1728658414700.0,-35.84,17.92,17.92
1728658414750.0,-17.92,35.84,17.92
1728658414800.0,-17.92,35.84,17.92
1728658414850.0,17.92,35.84,17.92
1728658414900.0,71.68,35.84,17.92
1728658414950.0,107.52,35.84,0.0
1728658415000.0,197.12,35.84,0.0
1728658415050.0,268.8,35.84,-35.84
1728658415100.0,376.32,35.84,-107.52
1728658415150.0,465.92,-53.76,-179.2
1728658415200.0,573.44,-35.84,-215.04
1728658415250.0,268.8,-53.76,-125.44
1728658415300.0,161.28,-107.52,35.84
1728658415350.0,125.44,0.0,-53.76
1728658415400.0,376.32,35.84,-376.32
1728658415450.0,734.72,555.52,-71.68
1728658415500.0,340.48,35.84,-107.52
1728658415550.0,71.68,-35.84,-17.92
1728658415600.0,89.6,53.76,0.0
1728658415650.0,53.76,0.0,17.92
1728658415700.0,53.76,0.0,35.84
1728658415750.0,17.92,0.0,35.84
1728658415800.0,17.92,17.92,17.92
1728658415850.0,17.92,17.92,35.84
1728658415900.0,-17.92,17.92,35.84
1728658415950.0,-17.92,0.0,17.92
1728658416000.0,-35.84,0.0,35.84
1728658416050.0,-35.84,0.0,17.92
1728658416100.0,-53.76,0.0,35.84
1728658416150.0,-71.68,0.0,35.84
1728658416200.0,-71.68,0.0,35.84
1728658416250.0,-53.76,17.92,53.76
1728658416300.0,-71.68,17.92,35.84
1728658416350.0,-71.68,17.92,35.84
1728658416400.0,-53.76,35.84,35.84
1728658416450.0,-35.84,17.92,17.92
1728658416500.0,-53.76,35.84,17.92
1728658416550.0,-17.92,0.0,0.0
1728658416600.0,-35.84,35.84,0.0
1728658416650.0,-17.92,35.84,0.0
1728658416700.0,-17.92,35.84,0.0
1728658416750.0,-17.92,53.76,0.0
1728658416800.0,0.0,71.68,-17.92
1728658416850.0,0.0,71.68,0.0
1728658416900.0,0.0,89.6,0.0
1728658416950.0,0.0,107.52,0.0
1728658417000.0,0.0,107.52,0.0
1728658417050.0,0.0,125.44,17.92
1728658417100.0,0.0,125.44,17.92
1728658417150.0,0.0,143.36,17.92
1728658417200.0,0.0,125.44,17.92
1728658417250.0,0.0,107.52,0.0
1728658417300.0,0.0,107.52,0.0
1728658417350.0,17.92,107.52,-17.92
1728658417400.0,17.92,89.6,-35.84
1728658417450.0,17.92,71.68,-17.92
1728658417500.0,35.84,71.68,-35.84
1728658417550.0,17.92,53.76,-17.92
1728658417600.0,35.84,35.84,-17.92
1728658417650.0,35.84,35.84,-17.92
1728658417700.0,35.84,17.92,-17.92
1728658417750.0,17.92,17.92,-17.92
1728658417800.0,17.92,0.0,0.0
1728658417850.0,-17.92,-17.92,0.0
1728658417900.0,-35.84,-35.84,35.84
1728658417950.0,-53.76,-53.76,35.84
1728658418000.0,-35.84,-71.68,35.84
1728658418050.0,-35.84,-71.68,35.84
1728658418100.0,-35.84,-89.6,53.76
1728658418150.0,-53.76,-89.6,53.76
1728658418200.0,-53.76,-89.6,71.68
1728658418250.0,-71.68,-89.6,71.68
1728658418300.0,-53.76,-89.6,71.68
1728658418350.0,-53.76,-89.6,71.68
1728658418400.0,-35.84,-107.52,35.84
1728658418450.0,-17.92,-107.52,17.92
1728658418500.0,-17.92,-107.52,0.0
1728658418550.0,-35.84,-71.68,17.92
1728658418600.0,-35.84,-71.68,17.92
1728658418650.0,-17.92,-53.76,17.92
1728658418700.0,-17.92,-53.76,17.92
1728658418750.0,0.0,-35.84,17.92
1728658418800.0,0.0,-17.92,17.92
1728658418850.0,17.92,-17.92,0.0
1728658418900.0,17.92,-17.92,17.92
1728658418950.0,17.92,-17.92,17.92
1728658419000.0,0.0,-17.92,17.92
1728658419050.0,0.0,-17.92,17.92
1728658419100.0,0.0,0.0,17.92
1728658419150.0,0.0,0.0,17.92
1728658419200.0,-17.92,0.0,17.92
1728658419250.0,-35.84,0.0,17.92
1728658419300.0,-53.76,-17.92,17.92
1728658419350.0,-71.68,-17.92,17.92
1728658419400.0,-71.68,-17.92,35.84
1728658419450.0,-89.6,-17.92,17.92
1728658419500.0,-89.6,17.92,35.84
1728658419550.0,-89.6,17.92,53.76
1728658419600.0,-89.6,0.0,35.84
1728658419650.0,-71.68,0.0,35.84
1728658419700.0,-53.76,0.0,35.84
1728658419750.0,-53.76,-17.92,35.84
1728658419800.0,-35.84,-17.92,17.92
1728658419850.0,-35.84,-17.92,17.92
1728658419900.0,-35.84,-17.92,17.92
1728658419950.0,-35.84,-17.92,17.92
1728658420000.0,-35.84,0.0,17.92
1728658420050.0,-35.84,17.92,17.92
1728658420100.0,-17.92,35.84,17.92
1728658420150.0,-17.92,35.84,0.0
1728658420200.0,-17.92,17.92,0.0
1728658420250.0,0.0,17.92,0.0
1728658420300.0,0.0,17.92,0.0
1728658420350.0,0.0,35.84,0.0
1728658420400.0,0.0,35.84,-17.92
1728658420450.0,17.92,35.84,0.0
1728658420500.0,17.92,53.76,0.0
1728658420550.0,17.92,53.76,0.0
1728658420600.0,17.92,35.84,0.0
1728658420650.0,17.92,53.76,-17.92
1728658420700.0,17.92,53.76,-17.92
1728658420750.0,17.92,53.76,-17.92
1728658420800.0,17.92,35.84,0.0
1728658420850.0,17.92,17.92,0.0
1728658420900.0,35.84,17.92,0.0
1728658420950.0,35.84,17.92,0.0
1728658421000.0,35.84,0.0,17.92
1728658421050.0,17.92,-17.92,35.84
1728658421100.0,0.0,-35.84,35.84
1728658421150.0,-35.84,-53.76,53.76
1728658421200.0,-35.84,-53.76,53.76
1728658421250.0,-53.76,-53.76,53.76
1728658421300.0,-53.76,-53.76,71.68
1728658421350.0,-53.76,-53.76,53.76
1728658421400.0,-35.84,-53.76,35.84
1728658421450.0,-17.92,-53.76,17.92
1728658421500.0,-17.92,-53.76,0.0
1728658421550.0,-17.92,-53.76,0.0
1728658421600.0,0.0,-53.76,-17.92
1728658421650.0,0.0,-53.76,-17.92
1728658421700.0,17.92,-35.84,-35.84
1728658421750.0,17.92,-35.84,-35.84
1728658421800.0,0.0,-17.92,-35.84
1728658421850.0,0.0,0.0,-35.84
1728658421900.0,-17.92,0.0,-35.84
1728658421950.0,0.0,17.92,-35.84
1728658422000.0,-17.92,17.92,-35.84
1728658422050.0,-17.92,17.92,-17.92
1728658422100.0,-17.92,17.92,-17.92
1728658422150.0,0.0,17.92,-17.92
1728658422200.0,0.0,17.92,-17.92
1728658422250.0,0.0,17.92,0.0
1728658422300.0,17.92,17.92,0.0
1728658422350.0,17.92,0.0,0.0
1728658422400.0,0.0,0.0,0.0
1728658422450.0,0.0,0.0,0.0
1728658422500.0,0.0,0.0,0.0
1728658422550.0,0.0,0.0,0.0
1728658422600.0,0.0,0.0,0.0
1728658422650.0,0.0,0.0,0.0
1728658422700.0,0.0,0.0,0.0
1728658422750.0,0.0,0.0,0.0
1728658422800.0,0.0,0.0,0.0
1728658422850.0,0.0,0.0,0.0
1728658422900.0,0.0,0.0,0.0
1728658422950.0,-17.92,17.92,0.0
1728658423000.0,-17.92,17.92,0.0
1728658423050.0,-35.84,17.92,0.0
1728658423100.0,-35.84,17.92,0.0
1728658423150.0,-35.84,17.92,17.92
1728658423200.0,-35.84,17.92,17.92
1728658423250.0,-35.84,17.92,17.92
1728658423300.0,-53.76,17.92,17.92
1728658423350.0,-53.76,17.92,17.92
1728658423400.0,-53.76,17.92,17.92
1728658423450.0,-53.76,35.84,17.92
1728658423500.0,-53.76,17.92,17.92
1728658423550.0,-35.84,35.84,17.92
1728658423600.0,-35.84,35.84,35.84
1728658423650.0,-17.92,35.84,17.92
1728658423700.0,0.0,35.84,17.92
1728658423750.0,35.84,35.84,17.92
1728658423800.0,53.76,35.84,17.92
1728658423850.0,107.52,35.84,0.0
1728658423900.0,143.36,35.84,-17.92
1728658423950.0,215.04,53.76,-35.84
1728658424000.0,340.48,35.84,-107.52
1728658424050.0,448.0,-53.76,-143.36
1728658424100.0,501.76,-71.68,-179.2
1728658424150.0,358.4,-71.68,-125.44
1728658424200.0,125.44,-107.52,-89.6
1728658424250.0,-71.68,53.76,0.0
1728658424300.0,286.72,161.28,-107.52
1728658424350.0,53.76,17.92,-71.68
1728658424400.0,143.36,0.0,-107.52
1728658424450.0,125.44,35.84,-71.68
1728658424500.0,107.52,-17.92,-17.92
1728658424550.0,53.76,-17.92,0.0
1728658424600.0,35.84,-35.84,35.84
1728658424650.0,0.0,17.92,35.84
1728658424700.0,17.92,35.84,35.84
1728658424750.0,0.0,17.92,17.92
1728658424800.0,-17.92,17.92,17.92
1728658424850.0,-17.92,0.0,17.92
1728658424900.0,-35.84,0.0,0.0
1728658424950.0,-17.92,0.0,0.0
1728658425000.0,-17.92,0.0,0.0
1728658425050.0,0.0,0.0,0.0
1728658425100.0,0.0,0.0,0.0
1728658425150.0,0.0,17.92,0.0
1728658425200.0,0.0,17.92,0.0
1728658425250.0,0.0,17.92,0.0
1728658425300.0,0.0,17.92,0.0
1728658425350.0,0.0,17.92,0.0
1728658425400.0,0.0,17.92,0.0
1728658425450.0,0.0,17.92,0.0
1728658425500.0,0.0,17.92,0.0
1728658425550.0,-17.92,17.92,0.0
1728658425600.0,-35.84,17.92,0.0
1728658425650.0,-89.6,17.92,0.0
1728658425700.0,-107.52,35.84,17.92
1728658425750.0,-125.44,35.84,35.84
1728658425800.0,-143.36,35.84,35.84
1728658425850.0,-143.36,35.84,35.84
1728658425900.0,-125.44,53.76,17.92
1728658425950.0,-107.52,71.68,0.0
1728658426000.0,-53.76,71.68,-17.92
1728658426050.0,-35.84,89.6,0.0
1728658426100.0,0.0,89.6,0.0
1728658426150.0,17.92,107.52,0.0
1728658426200.0,35.84,89.6,17.92
1728658426250.0,35.84,107.52,35.84
1728658426300.0,17.92,107.52,53.76
1728658426350.0,-17.92,125.44,71.68
1728658426400.0,0.0,143.36,35.84
1728658426450.0,17.92,107.52,17.92
1728658426500.0,17.92,107.52,0.0
1728658426550.0,35.84,89.6,0.0
1728658426600.0,35.84,89.6,0.0
1728658426650.0,35.84,71.68,0.0
1728658426700.0,35.84,53.76,0.0
1728658426750.0,35.84,35.84,0.0
1728658426800.0,53.76,35.84,0.0
1728658426850.0,53.76,17.92,0.0
1728658426900.0,53.76,17.92,0.0
1728658426950.0,35.84,0.0,17.92
1728658427000.0,0.0,-17.92,17.92
1728658427050.0,-17.92,-35.84,35.84
1728658427100.0,-53.76,-53.76,35.84
1728658427150.0,-53.76,-53.76,35.84
1728658427200.0,-53.76,-71.68,35.84
1728658427250.0,-53.76,-71.68,35.84
1728658427300.0,-53.76,-71.68,35.84
1728658427350.0,-53.76,-89.6,17.92
1728658427400.0,-53.76,-71.68,17.92
1728658427450.0,-53.76,-71.68,17.92
1728658427500.0,-35.84,-53.76,17.92
1728658427550.0,-35.84,-53.76,17.92
1728658427600.0,-17.92,-53.76,0.0
1728658427650.0,-17.92,-35.84,0.0
1728658427700.0,-17.92,-35.84,0.0
1728658427750.0,-17.92,-35.84,-17.92
1728658427800.0,-17.92,-17.92,-17.92
1728658427850.0,-17.92,-17.92,0.0
1728658427900.0,-17.92,-17.92,0.0
1728658427950.0,0.0,-17.92,0.0
1728658428000.0,0.0,-17.92,0.0
1728658428050.0,0.0,-35.84,17.92
1728658428100.0,0.0,-35.84,17.92
1728658428150.0,-17.92,-35.84,17.92
1728658428200.0,-17.92,-53.76,35.84
1728658428250.0,-17.92,-53.76,35.84
1728658428300.0,-35.84,-53.76,35.84
1728658428350.0,-35.84,-71.68,53.76
1728658428400.0,-35.84,-71.68,53.76
1728658428450.0,-35.84,-53.76,53.76
1728658428500.0,-35.84,-53.76,53.76
1728658428550.0,-35.84,-35.84,53.76
1728658428600.0,-17.92,-17.92,35.84
1728658428650.0,-17.92,-17.92,35.84
1728658428700.0,-17.92,-17.92,35.84
1728658428750.0,-35.84,-17.92,35.84
1728658428800.0,-35.84,-17.92,35.84
1728658428850.0,-17.92,-17.92,17.92
1728658428900.0,0.0,-17.92,17.92
1728658428950.0,17.92,0.0,0.0
1728658429000.0,17.92,0.0,0.0
1728658429050.0,17.92,0.0,-17.92
1728658429100.0,35.84,17.92,-17.92
1728658429150.0,35.84,17.92,-35.84
1728658429200.0,35.84,17.92,-35.84
1728658429250.0,35.84,35.84,-35.84
1728658429300.0,35.84,71.68,-53.76
1728658429350.0,17.92,71.68,-35.84
1728658429400.0,17.92,71.68,-35.84
1728658429450.0,0.0,71.68,-17.92
1728658429500.0,-17.92,53.76,0.0
1728658429550.0,-17.92,35.84,0.0
1728658429600.0,-35.84,35.84,17.92
1728658429650.0,-35.84,17.92,35.84
1728658429700.0,-35.84,0.0,35.84
1728658429750.0,0.0,-17.92,35.84
1728658429800.0,0.0,-17.92,35.84
1728658429850.0,0.0,-35.84,53.76
1728658429900.0,-17.92,-35.84,53.76
1728658429950.0,-17.92,-35.84,53.76
1728658430000.0,-17.92,-35.84,53.76
1728658430050.0,-35.84,-35.84,53.76
1728658430100.0,-17.92,-17.92,35.84
1728658430150.0,-35.84,-35.84,35.84
1728658430200.0,-17.92,-35.84,17.92
1728658430250.0,-17.92,-35.84,0.0
1728658430300.0,-17.92,-35.84,0.0
1728658430350.0,-17.92,-35.84,0.0
1728658430400.0,-17.92,-35.84,0.0
1728658430450.0,-17.92,-35.84,-17.92
1728658430500.0,-17.92,-17.92,-17.92
1728658430550.0,0.0,-17.92,-17.92
1728658430600.0,0.0,0.0,-35.84
1728658430650.0,0.0,0.0,-35.84
1728658430700.0,0.0,0.0,-35.84
1728658430750.0,0.0,17.92,-35.84
1728658430800.0,0.0,17.92,-17.92
1728658430850.0,0.0,17.92,-17.92
1728658430900.0,0.0,17.92,-17.92
1728658430950.0,0.0,17.92,-17.92
1728658431000.0,0.0,17.92,0.0
1728658431050.0,0.0,17.92,0.0
1728658431100.0,0.0,17.92,0.0
1728658431150.0,0.0,17.92,0.0
1728658431200.0,0.0,17.92,0.0
1728658431250.0,0.0,0.0,0.0
1728658431300.0,0.0,0.0,0.0
1728658431350.0,0.0,0.0,0.0
1728658431400.0,0.0,0.0,0.0
1728658431450.0,-17.92,17.92,0.0
1728658431500.0,-17.92,17.92,0.0
1728658431550.0,-35.84,17.92,0.0
1728658431600.0,-35.84,17.92,17.92
1728658431650.0,-35.84,17.92,17.92
1728658431700.0,-53.76,17.92,17.92
1728658431750.0,-53.76,17.92,17.92
1728658431800.0,-71.68,17.92,17.92
1728658431850.0,-53.76,35.84,17.92
1728658431900.0,-53.76,35.84,17.92
1728658431950.0,-35.84,35.84,35.84
1728658432000.0,-17.92,35.84,35.84
1728658432050.0,0.0,35.84,35.84
1728658432100.0,17.92,35.84,17.92
1728658432150.0,53.76,35.84,17.92
1728658432200.0,89.6,35.84,0.0
1728658432250.0,125.44,35.84,-17.92
1728658432300.0,197.12,35.84,-35.84
1728658432350.0,250.88,35.84,-53.76
1728658432400.0,358.4,35.84,-107.52
1728658432450.0,483.84,-71.68,-143.36
1728658432500.0,519.68,-17.92,-197.12
1728658432550.0,340.48,-143.36,-107.52
1728658432600.0,125.44,-143.36,17.92
1728658432650.0,107.52,143.36,-71.68
1728658432700.0,71.68,89.6,-89.6
1728658432750.0,197.12,125.44,-107.52
1728658432800.0,143.36,0.0,-71.68
1728658432850.0,125.44,0.0,-53.76
1728658432900.0,71.68,-17.92,-17.92
1728658432950.0,53.76,-17.92,0.0
1728658433000.0,-17.92,-17.92,53.76
1728658433050.0,53.76,71.68,-17.92
1728658433100.0,-17.92,17.92,35.84
1728658433150.0,0.0,17.92,17.92
1728658433200.0,-35.84,0.0,0.0
1728658433250.0,-35.84,17.92,0.0
1728658433300.0,-35.84,0.0,0.0
1728658433350.0,-17.92,0.0,0.0
1728658433400.0,-17.92,17.92,0.0
1728658433450.0,-35.84,17.92,-17.92
1728658433500.0,-17.92,0.0,0.0
1728658433550.0,-17.92,17.92,0.0
1728658433600.0,-35.84,0.0,0.0
1728658433650.0,-17.92,0.0,0.0
1728658433700.0,0.0,0.0,0.0
1728658433750.0,0.0,0.0,0.0
1728658433800.0,17.92,0.0,0.0
1728658433850.0,0.0,17.92,0.0
1728658433900.0,-35.84,17.92,0.0
1728658433950.0,-71.68,0.0,17.92
1728658434000.0,-53.76,17.92,17.92
1728658434050.0,-71.68,17.92,17.92
1728658434100.0,-89.6,17.92,17.92
1728658434150.0,-107.52,17.92,0.0
1728658434200.0,-107.52,0.0,0.0
1728658434250.0,-107.52,17.92,0.0
1728658434300.0,-89.6,17.92,-17.92
1728658434350.0,-53.76,35.84,-17.92
1728658434400.0,0.0,53.76,-17.92
1728658434450.0,-17.92,35.84,0.0
1728658434500.0,0.0,53.76,17.92
1728658434550.0,0.0,53.76,17.92
1728658434600.0,17.92,71.68,17.92
1728658434650.0,0.0,89.6,17.92
1728658434700.0,-17.92,89.6,35.84
1728658434750.0,-89.6,89.6,35.84
1728658434800.0,-35.84,161.28,0.0
1728658434850.0,-17.92,107.52,0.0
1728658434900.0,0.0,125.44,17.92
1728658434950.0,-17.92,125.44,17.92
1728658435000.0,0.0,107.52,17.92
1728658435050.0,0.0,107.52,17.92
1728658435100.0,17.92,89.6,0.0
1728658435150.0,35.84,89.6,0.0
1728658435200.0,53.76,71.68,0.0
1728658435250.0,53.76,71.68,-17.92
1728658435300.0,53.76,71.68,-17.92
1728658435350.0,53.76,53.76,-17.92
1728658435400.0,53.76,53.76,-17.92
1728658435450.0,53.76,35.84,-17.92
1728658435500.0,53.76,35.84,-17.92
1728658435550.0,35.84,17.92,-17.92
1728658435600.0,17.92,17.92,0.0
1728658435650.0,0.0,0.0,0.0
1728658435700.0,-35.84,-17.92,17.92
1728658435750.0,-53.76,-53.76,35.84
1728658435800.0,-53.76,-71.68,35.84
1728658435850.0,-53.76,-89.6,35.84
1728658435900.0,-53.76,-89.6,35.84
1728658435950.0,-53.76,-89.6,53.76
1728658436000.0,-53.76,-89.6,53.76
1728658380050.0,-71.68,-107.52,53.76
1728658380100.0,-53.76,-107.52,53.76
1728658380150.0,-53.76,-89.6,53.76
1728658380200.0,-53.76,-71.68,53.76
1728658380250.0,-35.84,-71.68,35.84
1728658380300.0,-17.92,-53.76,35.84
1728658380350.0,-17.92,-53.76,35.84
1728658380400.0,0.0,-35.84,17.92
1728658380450.0,0.0,-17.92,17.92
1728658380500.0,0.0,-17.92,0.0
1728658380550.0,0.0,0.0,0.0
1728658380600.0,0.0,0.0,0.0
1728658380650.0,0.0,0.0,0.0
1728658380700.0,0.0,0.0,17.92
1728658380750.0,-17.92,0.0,17.92
1728658380800.0,-17.92,0.0,17.92
1728658380850.0,-35.84,0.0,35.84
1728658380900.0,-35.84,-17.92,35.84
1728658380950.0,-35.84,-17.92,35.84
1728658381000.0,-35.84,-35.84,35.84
1728658381050.0,-17.92,-53.76,35.84
1728658381100.0,-17.92,-35.84,17.92
1728658381150.0,0.0,-17.92,0.0
1728658381200.0,35.84,0.0,-17.92
1728658381250.0,35.84,-17.92,-17.92
1728658381300.0,35.84,-17.92,0.0
1728658381350.0,17.92,-17.92,17.92
1728658381400.0,0.0,-17.92,17.92
1728658381450.0,0.0,-17.92,17.92
1728658381500.0,-17.92,-17.92,17.92
1728658381550.0,-17.92,0.0,17.92
1728658381600.0,-17.92,0.0,17.92
1728658381650.0,-35.84,0.0,0.0
1728658381700.0,-17.92,0.0,0.0
1728658381750.0,-17.92,17.92,0.0
1728658381800.0,-17.92,35.84,0.0
1728658381850.0,17.92,53.76,-17.92
1728658381900.0,17.92,53.76,-17.92
1728658381950.0,17.92,71.68,-17.92
1728658382000.0,17.92,53.76,-35.84
1728658382050.0,17.92,35.84,-17.92
1728658382100.0,17.92,17.92,-17.92
1728658382150.0,0.0,17.92,0.0
1728658382200.0,0.0,0.0,0.0
1728658382250.0,17.92,0.0,17.92
1728658382300.0,17.92,-17.92,17.92
1728658382350.0,0.0,-17.92,17.92
1728658382400.0,-17.92,-17.92,35.84
1728658382450.0,-35.84,-35.84,53.76
1728658382500.0,-35.84,-35.84,53.76
1728658382550.0,-35.84,-35.84,53.76
1728658382600.0,-17.92,-17.92,53.76
1728658382650.0,-35.84,-35.84,35.84
1728658382700.0,-17.92,-35.84,35.84
1728658382750.0,-17.92,-35.84,17.92
1728658382800.0,-17.92,-35.84,17.92
1728658382850.0,-17.92,-35.84,0.0
1728658382900.0,0.0,-35.84,0.0
1728658382950.0,0.0,-35.84,-17.92
1728658383000.0,0.0,-17.92,-17.92
1728658383050.0,0.0,-17.92,-35.84
1728658383100.0,0.0,-17.92,-35.84
1728658383150.0,0.0,-17.92,-35.84
1728658383200.0,0.0,0.0,-35.84
1728658383250.0,-17.92,17.92,-35.84
1728658383300.0,-17.92,17.92,-35.84
1728658383350.0,0.0,17.92,-17.92
1728658383400.0,0.0,17.92,-17.92
1728658383450.0,-17.92,35.84,0.0
1728658383500.0,-17.92,35.84,0.0
1728658383550.0,-17.92,17.92,0.0
1728658383600.0,-17.92,17.92,0.0
1728658383650.0,-17.92,17.92,17.92
1728658383700.0,-35.84,17.92,17.92
1728658383750.0,-53.76,17.92,35.84
1728658383800.0,-53.76,17.92,35.84
1728658383850.0,-71.68,17.92,35.84
1728658383900.0,-71.68,35.84,35.84
1728658383950.0,-53.76,35.84,35.84
1728658384000.0,-53.76,35.84,35.84
1728658384050.0,-53.76,35.84,35.84
1728658384100.0,-35.84,35.84,35.84
1728658384150.0,-17.92,35.84,17.92
1728658384200.0,0.0,17.92,17.92
1728658384250.0,17.92,17.92,17.92
1728658384300.0,53.76,17.92,0.0
1728658384350.0,71.68,17.92,0.0
1728658384400.0,107.52,17.92,-17.92
1728658384450.0,161.28,35.84,-35.84
1728658384500.0,215.04,35.84,-53.76
1728658384550.0,322.56,17.92,-107.52
1728658384600.0,448.0,-53.76,-143.36
1728658384650.0,501.76,-89.6,-161.28
1728658384700.0,304.64,-89.6,-125.44
1728658384750.0,250.88,-215.04,-35.84
1728658384800.0,-35.84,143.36,-53.76
1728658384850.0,107.52,53.76,-107.52
1728658384900.0,-89.6,-35.84,-125.44
1728658384950.0,143.36,53.76,-107.52
1728658385000.0,125.44,35.84,-53.76
1728658385050.0,71.68,-17.92,-17.92
1728658385100.0,71.68,0.0,0.0
1728658385150.0,53.76,-35.84,0.0
1728658385200.0,0.0,0.0,35.84
1728658385250.0,35.84,53.76,35.84
1728658385300.0,-17.92,0.0,17.92
1728658385350.0,-17.92,0.0,17.92
1728658385400.0,-17.92,0.0,17.92
1728658385450.0,-17.92,0.0,17.92
1728658385500.0,-17.92,0.0,17.92
1728658385550.0,0.0,0.0,0.0
1728658385600.0,0.0,0.0,0.0
1728658385650.0,0.0,0.0,0.0
1728658385700.0,17.92,0.0,0.0
1728658385750.0,17.92,0.0,0.0
1728658385800.0,0.0,0.0,0.0
1728658385850.0,0.0,0.0,0.0
1728658385900.0,0.0,0.0,0.0
1728658385950.0,-17.92,17.92,0.0
1728658386000.0,-17.92,0.0,0.0
1728658386050.0,-17.92,17.92,0.0
1728658386100.0,-53.76,35.84,0.0
1728658386150.0,-71.68,53.76,0.0
1728658386200.0,-53.76,53.76,17.92
1728658386250.0,-53.76,53.76,17.92
1728658386300.0,-53.76,53.76,0.0
1728658386350.0,-53.76,53.76,0.0
1728658386400.0,-35.84,53.76,0.0
1728658386450.0,-35.84,35.84,17.92
1728658386500.0,-35.84,71.68,17.92
1728658386550.0,-53.76,53.76,35.84
1728658386600.0,-71.68,35.84,35.84
1728658386650.0,-71.68,35.84,35.84
1728658386700.0,-71.68,53.76,35.84
1728658386750.0,-35.84,53.76,35.84
1728658386800.0,0.0,53.76,35.84
1728658386850.0,17.92,53.76,35.84
1728658386900.0,17.92,35.84,35.84
1728658386950.0,35.84,35.84,17.92
1728658387000.0,35.84,35.84,0.0
1728658387050.0,17.92,53.76,0.0
1728658387100.0,-17.92,89.6,53.76
1728658387150.0,-53.76,107.52,53.76
1728658387200.0,-35.84,89.6,53.76
1728658387250.0,0.0,89.6,17.92
1728658387300.0,35.84,89.6,17.92
1728658387350.0,53.76,89.6,0.0
1728658387400.0,71.68,89.6,0.0
1728658387450.0,71.68,71.68,0.0
1728658387500.0,53.76,71.68,17.92
1728658387550.0,53.76,71.68,17.92
1728658387600.0,35.84,53.76,17.92
1728658387650.0,17.92,53.76,17.92
1728658387700.0,35.84,35.84,17.92
1728658387750.0,35.84,17.92,17.92
1728658387800.0,17.92,17.92,0.0
1728658387850.0,17.92,0.0,0.0
1728658387900.0,0.0,-17.92,0.0
1728658387950.0,-17.92,-35.84,0.0
1728658388000.0,-35.84,-53.76,0.0
1728658388050.0,-35.84,-71.68,0.0
1728658388100.0,-53.76,-89.6,0.0
1728658388150.0,-53.76,-89.6,0.0
1728658388200.0,-71.68,-89.6,17.92
1728658388250.0,-71.68,-89.6,17.92
1728658388300.0,-53.76,-89.6,0.0
1728658388350.0,-71.68,-89.6,0.0
1728658388400.0,-89.6,-107.52,17.92
1728658388450.0,-107.52,-107.52,35.84
1728658388500.0,-89.6,-89.6,35.84
1728658388550.0,-71.68,-89.6,17.92
1728658388600.0,-53.76,-89.6,17.92
1728658388650.0,-35.84,-71.68,17.92
1728658388700.0,-17.92,-53.76,17.92
1728658388750.0,0.0,-53.76,0.0
1728658388800.0,17.92,-35.84,0.0
1728658388850.0,17.92,-35.84,0.0
1728658388900.0,35.84,-35.84,0.0
1728658388950.0,17.92,-17.92,0.0
1728658389000.0,17.92,-17.92,0.0
1728658389050.0,17.92,-17.92,0.0
1728658389100.0,0.0,-17.92,0.0
1728658389150.0,0.0,-17.92,0.0
1728658389200.0,0.0,0.0,0.0
1728658389250.0,0.0,0.0,0.0
1728658389300.0,0.0,0.0,0.0
1728658389350.0,17.92,17.92,0.0
1728658389400.0,17.92,0.0,0.0
1728658389450.0,0.0,0.0,0.0
1728658389500.0,0.0,0.0,0.0
1728658389550.0,-17.92,-17.92,0.0
1728658389600.0,-35.84,-17.92,0.0
1728658389650.0,-35.84,-17.92,0.0
1728658389700.0,-53.76,-17.92,0.0
1728658389750.0,-71.68,-17.92,17.92
1728658389800.0,-71.68,0.0,17.92
1728658389850.0,-89.6,17.92,35.84
1728658389900.0,-89.6,17.92,35.84
1728658389950.0,-89.6,17.92,35.84
1728658390000.0,-71.68,17.92,35.84
1728658390050.0,-53.76,17.92,17.92
1728658390100.0,-35.84,17.92,17.92
1728658390150.0,0.0,17.92,0.0
1728658390200.0,17.92,17.92,0.0
1728658390250.0,17.92,0.0,0.0
1728658390300.0,0.0,0.0,0.0
1728658390350.0,0.0,0.0,0.0
1728658390400.0,0.0,0.0,0.0
1728658390450.0,0.0,0.0,-17.92
1728658390500.0,0.0,17.92,-35.84
1728658390550.0,17.92,17.92,-35.84
1728658390600.0,35.84,35.84,-53.76
1728658390650.0,53.76,35.84,-53.76
1728658390700.0,53.76,71.68,-35.84
1728658390750.0,71.68,53.76,-17.92
1728658390800.0,71.68,53.76,0.0
1728658390850.0,35.84,71.68,-17.92
1728658390900.0,35.84,53.76,0.0
1728658390950.0,35.84,35.84,0.0
1728658391000.0,35.84,35.84,0.0
1728658391050.0,35.84,17.92,0.0
1728658391100.0,17.92,0.0,0.0
1728658391150.0,0.0,0.0,17.92
1728658391200.0,0.0,-17.92,17.92
1728658391250.0,0.0,-17.92,35.84
1728658391300.0,-17.92,-17.92,17.92
1728658391350.0,0.0,-17.92,35.84
1728658391400.0,-17.92,-35.84,35.84
1728658391450.0,-17.92,-35.84,35.84
1728658391500.0,-17.92,-35.84,35.84
1728658391550.0,-17.92,-17.92,17.92
1728658391600.0,-17.92,-17.92,17.92
1728658391650.0,0.0,-17.92,0.0
1728658391700.0,17.92,-17.92,-17.92
1728658391750.0,17.92,-17.92,-35.84
1728658391800.0,17.92,-35.84,-35.84
1728658391850.0,17.92,-17.92,-35.84
1728658391900.0,35.84,-17.92,-35.84
1728658391950.0,53.76,-17.92,-35.84
1728658392000.0,53.76,-17.92,-35.84
1728658392050.0,35.84,-17.92,-35.84
1728658392100.0,17.92,-17.92,-35.84
1728658392150.0,17.92,-17.92,-17.92
1728658392200.0,17.92,0.0,-17.92
1728658392250.0,17.92,0.0,0.0
1728658392300.0,17.92,0.0,0.0
1728658392350.0,0.0,0.0,17.92
1728658392400.0,0.0,0.0,17.92
1728658392450.0,0.0,17.92,0.0
1728658392500.0,0.0,17.92,0.0
1728658392550.0,-17.92,17.92,0.0
1728658392600.0,-17.92,17.92,0.0
1728658392650.0,0.0,17.92,0.0
1728658392700.0,0.0,17.92,0.0
1728658392750.0,-17.92,0.0,0.0
1728658392800.0,-17.92,0.0,0.0
1728658392850.0,-17.92,0.0,17.92
1728658392900.0,-35.84,0.0,17.92
1728658392950.0,-35.84,0.0,17.92
1728658393000.0,-35.84,0.0,35.84
1728658393050.0,-53.76,0.0,35.84
1728658393100.0,-53.76,-17.92,53.76
1728658393150.0,-89.6,-17.92,53.76
1728658393200.0,-89.6,-17.92,53.76
1728658393250.0,-89.6,-17.92,53.76
1728658393300.0,-71.68,-17.92,35.84
1728658393350.0,-71.68,-17.92,35.84
1728658393400.0,-53.76,-35.84,17.92
1728658393450.0,-35.84,-35.84,0.0
1728658393500.0,-17.92,-17.92,-17.92
1728658393550.0,-17.92,-17.92,-17.92
1728658393600.0,0.0,-17.92,-35.84
1728658393650.0,0.0,-17.92,-35.84
1728658393700.0,17.92,-17.92,-35.84
1728658393750.0,35.84,0.0,-35.84
1728658393800.0,17.92,17.92,-35.84
1728658393850.0,17.92,17.92,-17.92
1728658393900.0,17.92,17.92,-17.92
1728658393950.0,17.92,17.92,-17.92
1728658394000.0,17.92,17.92,0.0
1728658394050.0,0.0,17.92,0.0
1728658394100.0,0.0,17.92,0.0
1728658394150.0,0.0,17.92,0.0
1728658394200.0,-17.92,0.0,0.0
1728658394250.0,-17.92,17.92,17.92
1728658394300.0,-17.92,17.92,17.92
1728658394350.0,-35.84,17.92,17.92
1728658394400.0,-35.84,17.92,17.92
1728658394450.0,-53.76,17.92,17.92
1728658394500.0,-53.76,17.92,35.84
1728658394550.0,-71.68,17.92,35.84
1728658394600.0,-71.68,17.92,35.84
1728658394650.0,-71.68,17.92,35.84
1728658394700.0,-71.68,17.92,35.84
1728658394750.0,-53.76,35.84,35.84
1728658394800.0,-53.76,35.84,35.84
1728658394850.0,-17.92,35.84,35.84
1728658394900.0,0.0,35.84,35.84
1728658394950.0,17.92,35.84,17.92
1728658395000.0,53.76,35.84,17.92
1728658395050.0,89.6,35.84,0.0
1728658395100.0,143.36,35.84,-17.92
1728658395150.0,197.12,53.76,-53.76
1728658395200.0,286.72,53.76,-107.52
1728658395250.0,412.16,0.0,-161.28
1728658395300.0,537.6,-53.76,-232.96
1728658395350.0,430.08,-89.6,-197.12
1728658395400.0,232.96,-197.12,-53.76
1728658395450.0,-89.6,179.2,35.84
1728658395500.0,107.52,-53.76,-53.76
1728658395550.0,0.0,-53.76,-107.52
1728658395600.0,125.44,53.76,-89.6
1728658395650.0,143.36,17.92,-71.68
1728658395700.0,89.6,-17.92,-17.92
1728658395750.0,35.84,-17.92,-17.92
1728658395800.0,53.76,-35.84,17.92
1728658395850.0,17.92,17.92,35.84
1728658395900.0,17.92,0.0,17.92
1728658395950.0,0.0,17.92,0.0
1728658396000.0,17.92,0.0,0.0
1728658396050.0,0.0,0.0,0.0
1728658396100.0,-17.92,0.0,0.0
1728658396150.0,-17.92,0.0,0.0
1728658396200.0,-17.92,17.92,0.0
1728658396250.0,-17.92,17.92,0.0
1728658396300.0,-17.92,17.92,0.0
1728658396350.0,-17.92,17.92,0.0
1728658396400.0,0.0,17.92,0.0
1728658396450.0,-17.92,17.92,0.0
1728658396500.0,-17.92,35.84,0.0
1728658396550.0,-35.84,35.84,0.0
1728658396600.0,-17.92,53.76,0.0
1728658396650.0,-53.76,35.84,0.0
1728658396700.0,-53.76,53.76,17.92
1728658396750.0,-53.76,71.68,17.92
1728658396800.0,-71.68,71.68,17.92
1728658396850.0,-71.68,71.68,17.92
1728658396900.0,-71.68,71.68,17.92
1728658396950.0,-71.68,53.76,35.84
1728658397000.0,-71.68,53.76,17.92
1728658397050.0,-71.68,71.68,35.84
1728658397100.0,-71.68,71.68,35.84
1728658397150.0,-71.68,53.76,35.84
1728658397200.0,-53.76,35.84,35.84
1728658397250.0,-71.68,17.92,35.84
1728658397300.0,-71.68,17.92,53.76
1728658397350.0,-89.6,0.0,71.68
1728658397400.0,-89.6,0.0,71.68
1728658397450.0,-71.68,0.0,53.76
1728658397500.0,-71.68,0.0,35.84
1728658397550.0,-53.76,-17.92,35.84
1728658397600.0,-17.92,-17.92,17.92
1728658397650.0,-17.92,17.92,17.92
1728658397700.0,0.0,35.84,17.92
1728658397750.0,0.0,35.84,17.92
1728658397800.0,17.92,53.76,0.0
1728658397850.0,35.84,53.76,0.0
1728658397900.0,35.84,71.68,0.0
1728658397950.0,35.84,89.6,0.0
1728658398000.0,17.92,107.52,17.92
1728658398050.0,17.92,125.44,35.84
1728658398100.0,0.0,107.52,35.84
1728658398150.0,35.84,125.44,0.0
1728658398200.0,71.68,125.44,0.0
1728658398250.0,71.68,107.52,-17.92
1728658398300.0,71.68,89.6,-17.92
1728658398350.0,71.68,71.68,0.0
1728658398400.0,53.76,71.68,-17.92
1728658398450.0,53.76,53.76,-17.92
1728658398500.0,53.76,53.76,0.0
1728658398550.0,35.84,35.84,0.0
1728658398600.0,35.84,35.84,0.0
1728658398650.0,17.92,17.92,0.0
1728658398700.0,0.0,0.0,0.0
1728658398750.0,-17.92,0.0,17.92
1728658398800.0,-35.84,-17.92,17.92
1728658398850.0,-53.76,-35.84,17.92
1728658398900.0,-53.76,-53.76,17.92
1728658398950.0,-53.76,-71.68,17.92
1728658399000.0,-53.76,-71.68,17.92
1728658399050.0,-53.76,-71.68,17.92
1728658399100.0,-71.68,-71.68,17.92
1728658399150.0,-53.76,-71.68,17.92
1728658399200.0,-53.76,-71.68,17.92
1728658399250.0,-35.84,-71.68,17.92
1728658399300.0,-35.84,-71.68,0.0
1728658399350.0,-35.84,-71.68,0.0
1728658399400.0,-17.92,-71.68,0.0
1728658399450.0,0.0,-71.68,0.0
1728658399500.0,17.92,-71.68,-17.92
1728658399550.0,35.84,-53.76,-35.84
1728658399600.0,35.84,-71.68,-35.84
1728658399650.0,35.84,-53.76,-35.84
1728658399700.0,35.84,-53.76,-35.84
1728658399750.0,35.84,-35.84,-17.92
1728658399800.0,17.92,-35.84,-17.92
1728658399850.0,17.92,-35.84,-17.92
1728658399900.0,0.0,-35.84,0.0
1728658399950.0,-17.92,-35.84,17.92
1728658400000.0,-35.84,-17.92,17.92
1728658400050.0,-53.76,-17.92,17.92
1728658400100.0,-53.76,-17.92,17.92
1728658400150.0,-53.76,0.0,17.92
1728658400200.0,-53.76,17.92,17.92
1728658400250.0,-35.84,17.92,17.92
1728658400300.0,-35.84,17.92,17.92
1728658400350.0,-35.84,17.92,17.92
1728658400400.0,-17.92,0.0,17.92
1728658400450.0,-17.92,-35.84,17.92
1728658400500.0,-17.92,-35.84,17.92
1728658400550.0,-17.92,-35.84,17.92
1728658400600.0,-17.92,-17.92,17.92
1728658400650.0,-17.92,-17.92,17.92
1728658400700.0,-17.92,0.0,35.84
1728658400750.0,-17.92,17.92,35.84
1728658400800.0,-17.92,35.84,35.84
1728658400850.0,0.0,35.84,35.84
1728658400900.0,17.92,53.76,0.0
1728658400950.0,35.84,35.84,0.0
1728658401000.0,35.84,17.92,-17.92
1728658401050.0,17.92,17.92,-17.92
1728658401100.0,17.92,17.92,-17.92
1728658401150.0,17.92,0.0,0.0
1728658401200.0,17.92,0.0,0.0
1728658401250.0,17.92,0.0,-17.92
1728658401300.0,17.92,0.0,-35.84
1728658401350.0,17.92,0.0,-35.84
1728658401400.0,0.0,17.92,-35.84
1728658401450.0,0.0,0.0,-17.92
1728658401500.0,-17.92,0.0,0.0
1728658401550.0,0.0,0.0,-17.92
1728658401600.0,0.0,0.0,-17.92
1728658401650.0,0.0,0.0,-17.92
1728658401700.0,0.0,0.0,-17.92
1728658401750.0,17.92,-17.92,-17.92
1728658401800.0,17.92,-17.92,0.0
1728658401850.0,17.92,0.0,0.0
1728658401900.0,17.92,0.0,-17.92
1728658401950.0,17.92,-17.92,0.0
1728658402000.0,0.0,0.0,17.92
1728658402050.0,-17.92,0.0,17.92
1728658402100.0,0.0,0.0,0.0
1728658402150.0,0.0,0.0,0.0
1728658402200.0,0.0,0.0,0.0
1728658402250.0,0.0,0.0,0.0
1728658402300.0,0.0,0.0,0.0
1728658402350.0,0.0,0.0,0.0
1728658402400.0,-17.92,0.0,0.0
1728658402450.0,-17.92,0.0,17.92
1728658402500.0,-35.84,0.0,17.92
1728658402550.0,-17.92,-17.92,35.84
1728658402600.0,-35.84,-17.92,35.84
1728658402650.0,-35.84,-35.84,35.84
1728658402700.0,-53.76,-35.84,35.84
1728658402750.0,-53.76,-35.84,35.84
1728658402800.0,-53.76,-35.84,35.84
1728658402850.0,-71.68,-35.84,17.92
1728658402900.0,-71.68,-35.84,17.92
1728658402950.0,-53.76,-17.92,0.0
1728658403000.0,-35.84,-17.92,-17.92
1728658403050.0,-17.92,-17.92,-17.92
1728658403100.0,0.0,0.0,-35.84
1728658403150.0,-17.92,0.0,-35.84
1728658403200.0,-17.92,0.0,-35.84
1728658403250.0,0.0,17.92,-35.84
1728658403300.0,0.0,0.0,-35.84
1728658403350.0,35.84,17.92,-35.84
1728658403400.0,17.92,17.92,-35.84
1728658403450.0,17.92,35.84,-17.92
1728658403500.0,17.92,17.92,-17.92
1728658403550.0,0.0,35.84,-17.92
1728658403600.0,0.0,17.92,0.0
1728658403650.0,-17.92,17.92,0.0
1728658403700.0,-35.84,17.92,17.92
1728658403750.0,-35.84,17.92,17.92
1728658403800.0,-53.76,17.92,17.92
1728658403850.0,-71.68,17.92,35.84
1728658403900.0,-71.68,17.92,35.84
1728658403950.0,-71.68,17.92,35.84
1728658404000.0,-71.68,17.92,35.84
1728658404050.0,-53.76,35.84,35.84
1728658404100.0,-35.84,35.84,35.84
1728658404150.0,-35.84,35.84,35.84
1728658404200.0,-17.92,35.84,35.84
1728658404250.0,0.0,35.84,35.84
1728658404300.0,35.84,35.84,17.92
1728658404350.0,71.68,35.84,17.92
1728658404400.0,125.44,35.84,0.0
1728658404450.0,232.96,53.76,-35.84
1728658404500.0,358.4,35.84,-89.6
1728658404550.0,483.84,-53.76,-143.36
1728658404600.0,537.6,-53.76,-215.04
1728658404650.0,322.56,-71.68,-143.36
1728658404700.0,358.4,-197.12,-53.76
1728658404750.0,-358.4,107.52,17.92
1728658404800.0,232.96,107.52,-125.44
1728658404850.0,17.92,-35.84,-161.28
1728658404900.0,71.68,53.76,-53.76
1728658404950.0,71.68,35.84,-53.76
1728658405000.0,53.76,-35.84,0.0
1728658405050.0,35.84,-17.92,0.0
1728658405100.0,53.76,-35.84,17.92
1728658405150.0,-53.76,53.76,17.92
1728658405200.0,35.84,35.84,17.92
1728658405250.0,0.0,17.92,17.92
1728658405300.0,-17.92,0.0,0.0
1728658405350.0,-17.92,17.92,0.0
1728658405400.0,-17.92,0.0,0.0
1728658405450.0,-17.92,17.92,0.0
1728658405500.0,-17.92,0.0,0.0
1728658405550.0,-17.92,0.0,0.0
1728658405600.0,-17.92,17.92,0.0
1728658405650.0,-17.92,0.0,0.0
1728658405700.0,-17.92,17.92,0.0
1728658405750.0,-17.92,17.92,0.0
1728658405800.0,-17.92,17.92,-17.92
1728658405850.0,-35.84,0.0,0.0
1728658405900.0,-53.76,0.0,0.0
1728658405950.0,-71.68,17.92,17.92
1728658406000.0,-71.68,17.92,35.84
1728658406050.0,-71.68,0.0,17.92
1728658406100.0,-71.68,0.0,17.92
1728658406150.0,-53.76,0.0,17.92
1728658406200.0,-53.76,17.92,17.92
1728658406250.0,-53.76,17.92,17.92
1728658406300.0,-71.68,17.92,17.92
1728658406350.0,-107.52,17.92,17.92
1728658406400.0,-161.28,35.84,17.92
1728658406450.0,-125.44,17.92,0.0
1728658406500.0,-89.6,0.0,0.0
1728658406550.0,-89.6,0.0,0.0
1728658406600.0,-71.68,17.92,0.0
1728658406650.0,-71.68,0.0,17.92
1728658406700.0,-89.6,17.92,35.84
1728658406750.0,-107.52,0.0,35.84
1728658406800.0,-107.52,17.92,53.76
1728658406850.0,-71.68,17.92,35.84
1728658406900.0,-71.68,17.92,35.84
1728658406950.0,-53.76,17.92,35.84
1728658407000.0,-35.84,35.84,17.92
1728658407050.0,-17.92,53.76,17.92
1728658407100.0,-17.92,53.76,0.0
1728658407150.0,-17.92,71.68,0.0
1728658407200.0,-17.92,89.6,0.0
1728658407250.0,-17.92,89.6,0.0
1728658407300.0,-17.92,89.6,0.0
1728658407350.0,0.0,89.6,0.0
1728658407400.0,17.92,107.52,0.0
1728658407450.0,35.84,143.36,-35.84
1728658407500.0,35.84,161.28,-35.84
1728658407550.0,35.84,125.44,-17.92
1728658407600.0,53.76,125.44,-17.92
1728658407650.0,53.76,125.44,-17.92
1728658407700.0,53.76,125.44,-35.84
1728658407750.0,53.76,107.52,-35.84
1728658407800.0,53.76,89.6,-35.84
1728658407850.0,35.84,71.68,-35.84
1728658407900.0,35.84,53.76,-35.84
1728658407950.0,35.84,53.76,-35.84
1728658408000.0,35.84,53.76,-35.84
1728658408050.0,17.92,35.84,-17.92
1728658408100.0,-17.92,17.92,0.0
1728658408150.0,-17.92,0.0,0.0
1728658408200.0,-53.76,-35.84,17.92
1728658408250.0,-53.76,-53.76,17.92
1728658408300.0,-53.76,-71.68,17.92
1728658408350.0,-53.76,-71.68,35.84
1728658408400.0,-53.76,-89.6,35.84
1728658408450.0,-53.76,-89.6,35.84
1728658408500.0,-71.68,-89.6,35.84
1728658408550.0,-71.68,-107.52,35.84
1728658408600.0,-53.76,-125.44,35.84
1728658408650.0,-35.84,-125.44,35.84
1728658408700.0,-35.84,-89.6,35.84
1728658408750.0,-17.92,-89.6,35.84
1728658408800.0,-17.92,-89.6,17.92
1728658408850.0,0.0,-89.6,0.0
1728658408900.0,17.92,-71.68,-17.92
1728658408950.0,17.92,-71.68,0.0
1728658409000.0,17.92,-53.76,0.0
1728658409050.0,17.92,-53.76,-17.92
1728658409100.0,17.92,-35.84,-17.92
1728658409150.0,17.92,-35.84,-17.92
1728658409200.0,17.92,-17.92,-35.84
1728658409250.0,35.84,0.0,-35.84
1728658409300.0,35.84,0.0,-35.84
1728658409350.0,35.84,0.0,-35.84
1728658409400.0,35.84,0.0,-35.84
1728658409450.0,0.0,0.0,-17.92
1728658409500.0,0.0,0.0,-17.92
1728658409550.0,17.92,0.0,-17.92
1728658409600.0,17.92,0.0,-17.92
1728658409650.0,17.92,0.0,-17.92
1728658409700.0,17.92,0.0,-17.92
1728658409750.0,17.92,0.0,0.0
1728658409800.0,17.92,0.0,0.0
1728658409850.0,17.92,0.0,0.0
1728658409900.0,17.92,0.0,0.0
1728658409950.0,17.92,-17.92,0.0
1728658410000.0,0.0,-17.92,0.0
1728658410050.0,0.0,-35.84,0.0
1728658410100.0,17.92,-35.84,0.0
1728658410150.0,0.0,-35.84,0.0
1728658410200.0,0.0,-53.76,0.0
1728658410250.0,-17.92,-35.84,17.92
1728658410300.0,-35.84,-17.92,17.92
1728658410350.0,-35.84,-17.92,17.92
1728658410400.0,-35.84,-17.92,35.84
1728658410450.0,-53.76,0.0,35.84
1728658410500.0,-53.76,-17.92,35.84
1728658410550.0,-53.76,-17.92,35.84
1728658410600.0,-35.84,-17.92,17.92
1728658410650.0,-35.84,-17.92,17.92
1728658410700.0,-17.92,-17.92,17.92
1728658410750.0,-17.92,-17.92,17.92
1728658410800.0,0.0,0.0,0.0
1728658410850.0,0.0,0.0,0.0
1728658410900.0,0.0,0.0,0.0
1728658410950.0,0.0,0.0,0.0
1728658411000.0,0.0,0.0,0.0
1728658411050.0,0.0,0.0,0.0
1728658411100.0,17.92,0.0,-17.92
1728658411150.0,17.92,17.92,-17.92
1728658411200.0,35.84,17.92,-17.92
1728658411250.0,17.92,17.92,-17.92
1728658411300.0,17.92,17.92,-17.92
1728658411350.0,35.84,17.92,-17.92
1728658411400.0,17.92,17.92,-17.92
1728658411450.0,17.92,17.92,0.0
1728658411500.0,-35.84,17.92,0.0
1728658411550.0,-53.76,0.0,0.0
1728658411600.0,-53.76,17.92,0.0
1728658411650.0,-53.76,17.92,0.0
1728658411700.0,-17.92,17.92,0.0
1728658411750.0,-17.92,0.0,0.0
1728658411800.0,-17.92,0.0,0.0
1728658411850.0,0.0,-17.92,0.0
1728658411900.0,35.84,-17.92,0.0
1728658411950.0,53.76,-17.92,-17.92
1728658412000.0,35.84,0.0,0.0
1728658412050.0,17.92,17.92,17.92
1728658412100.0,0.0,53.76,17.92
1728658412150.0,0.0,89.6,17.92
1728658412200.0,-17.92,71.68,0.0
1728658412250.0,-35.84,35.84,0.0
1728658412300.0,-17.92,35.84,-17.92
1728658412350.0,0.0,35.84,-17.92
1728658412400.0,0.0,35.84,0.0
1728658412450.0,0.0,35.84,17.92
1728658412500.0,0.0,35.84,0.0
1728658412550.0,17.92,35.84,0.0
1728658412600.0,35.84,53.76,0.0
1728658412650.0,35.84,53.76,0.0
1728658412700.0,17.92,53.76,-17.92
1728658412750.0,17.92,35.84,-35.84
1728658412800.0,17.92,35.84,-35.84
1728658412850.0,17.92,35.84,-17.92
1728658412900.0,17.92,35.84,-17.92
1728658412950.0,17.92,17.92,-17.92
1728658413000.0,17.92,0.0,-17.92
1728658413050.0,17.92,0.0,0.0
1728658413100.0,0.0,0.0,17.92
1728658413150.0,-17.92,-17.92,35.84
1728658413200.0,-35.84,-17.92,53.76
1728658413250.0,-35.84,-17.92,71.68
1728658413300.0,-35.84,-17.92,53.76
1728658413350.0,-17.92,-17.92,35.84
1728658413400.0,-35.84,-17.92,35.84
1728658413450.0,-35.84,-17.92,35.84
1728658413500.0,-35.84,-17.92,35.84
1728658413550.0,-35.84,-35.84,35.84
1728658413600.0,-17.92,-35.84,0.0
1728658413650.0,0.0,-35.84,-17.92
1728658413700.0,0.0,-35.84,-17.92
1728658413750.0,35.84,-53.76,-35.84
1728658413800.0,53.76,-53.76,-35.84
1728658413850.0,71.68,-35.84,-53.76
1728658413900.0,71.68,-35.84,-53.76
1728658413950.0,71.68,-17.92,-35.84
1728658414000.0,53.76,0.0,-35.84
1728658414050.0,53.76,0.0,-53.76
1728658414100.0,53.76,0.0,-53.76
1728658414150.0,35.84,0.0,-35.84
1728658414200.0,35.84,17.92,-35.84
1728658414250.0,35.84,0.0,-17.92
1728658414300.0,17.92,17.92,-17.92
1728658414350.0,0.0,0.0,0.0
1728658414400.0,-17.92,0.0,17.92
1728658414450.0,-17.92,0.0,17.92
1728658414500.0,-17.92,0.0,17.92
1728658414550.0,0.0,0.0,17.92
1728658414600.0,0.0,0.0,17.92
1728658414650.0,-17.92,0.0,17.92
1728658414700.0,-17.92,0.0,17.92
1728658414750.0,-17.92,0.0,0.0
1728658414800.0,-17.92,0.0,0.0
1728658414850.0,0.0,0.0,0.0
1728658414900.0,-17.92,0.0,0.0
1728658414950.0,-17.92,0.0,0.0
1728658415000.0,-17.92,0.0,0.0
1728658415050.0,-17.92,0.0,17.92
1728658415100.0,-35.84,0.0,35.84
1728658415150.0,-35.84,-17.92,35.84
1728658415200.0,-35.84,-17.92,53.76
1728658415250.0,-35.84,-35.84,53.76
1728658415300.0,-35.84,-35.84,53.76
1728658415350.0,-35.84,-35.84,35.84
1728658415400.0,-53.76,-35.84,35.84
1728658415450.0,-53.76,-35.84,17.92
1728658415500.0,-53.76,-35.84,17.92
1728658415550.0,-35.84,-35.84,0.0
1728658415600.0,-35.84,-17.92,-17.92
1728658415650.0,-35.84,-17.92,-17.92
1728658415700.0,-35.84,-17.92,-35.84
1728658415750.0,-35.84,-17.92,-35.84
1728658415800.0,-17.92,0.0,-35.84
1728658415850.0,-17.92,0.0,-35.84
1728658415900.0,0.0,0.0,-17.92
1728658415950.0,0.0,17.92,-17.92
1728658416000.0,0.0,17.92,-17.92
1728658416050.0,0.0,17.92,0.0
1728658416100.0,-17.92,17.92,0.0
1728658416150.0,-17.92,17.92,0.0
1728658416200.0,-35.84,35.84,17.92
1728658416250.0,-35.84,17.92,17.92
1728658416300.0,-35.84,35.84,17.92
1728658416350.0,-53.76,17.92,17.92
1728658416400.0,-53.76,35.84,35.84
1728658416450.0,-53.76,35.84,35.84
1728658416500.0,-53.76,35.84,35.84
1728658416550.0,-53.76,35.84,53.76
1728658416600.0,-53.76,35.84,53.76
1728658416650.0,-35.84,35.84,53.76
1728658416700.0,-17.92,35.84,35.84
1728658416750.0,0.0,35.84,35.84
1728658416800.0,35.84,17.92,17.92
1728658416850.0,71.68,35.84,17.92
1728658416900.0,107.52,35.84,0.0
1728658416950.0,179.2,53.76,-35.84
1728658417000.0,250.88,35.84,-71.68
1728658417050.0,376.32,17.92,-143.36
1728658417100.0,501.76,-89.6,-179.2
1728658417150.0,448.0,-35.84,-215.04
1728658417200.0,250.88,-215.04,-125.44
1728658417250.0,107.52,0.0,-17.92
1728658417300.0,143.36,35.84,53.76
1728658417350.0,215.04,125.44,-89.6
1728658417400.0,179.2,89.6,-143.36
1728658417450.0,161.28,0.0,-107.52
1728658417500.0,53.76,0.0,-35.84
1728658417550.0,71.68,17.92,-17.92
1728658417600.0,0.0,0.0,0.0
1728658417650.0,35.84,0.0,35.84
1728658417700.0,0.0,0.0,17.92
1728658417750.0,0.0,35.84,35.84
1728658417800.0,0.0,35.84,17.92
1728658417850.0,-17.92,17.92,17.92
1728658417900.0,-35.84,17.92,0.0
1728658417950.0,-17.92,17.92,0.0
1728658418000.0,-17.92,17.92,0.0
1728658418050.0,-35.84,35.84,0.0
1728658418100.0,-17.92,53.76,0.0
1728658418150.0,-53.76,35.84,0.0
1728658418200.0,-35.84,35.84,17.92
1728658418250.0,-71.68,53.76,17.92
1728658418300.0,-53.76,53.76,35.84
1728658418350.0,-53.76,71.68,35.84
1728658418400.0,-71.68,53.76,35.84
1728658418450.0,-71.68,71.68,35.84
1728658418500.0,-71.68,53.76,17.92
1728658418550.0,-53.76,53.76,17.92
1728658418600.0,-71.68,53.76,17.92
1728658418650.0,-53.76,53.76,17.92
1728658418700.0,-53.76,35.84,35.84
1728658418750.0,-53.76,17.92,35.84
1728658418800.0,-71.68,0.0,53.76
1728658418850.0,-107.52,0.0,71.68
1728658418900.0,-107.52,0.0,71.68
1728658418950.0,-107.52,0.0,89.6
1728658419000.0,-89.6,0.0,71.68
1728658419050.0,-71.68,0.0,71.68
1728658419100.0,-35.84,0.0,53.76
1728658419150.0,-17.92,-17.92,35.84
1728658419200.0,-17.92,0.0,35.84
1728658419250.0,0.0,17.92,17.92
1728658419300.0,0.0,35.84,17.92
1728658419350.0,17.92,35.84,0.0
1728658419400.0,17.92,35.84,0.0
1728658419450.0,17.92,53.76,-17.92
1728658419500.0,17.92,71.68,-17.92
1728658419550.0,17.92,71.68,-17.92
1728658419600.0,17.92,89.6,-17.92
1728658419650.0,0.0,89.6,0.0
1728658419700.0,-17.92,89.6,0.0
1728658419750.0,0.0,107.52,0.0
1728658419800.0,35.84,107.52,-17.92
1728658419850.0,53.76,125.44,-17.92
1728658419900.0,53.76,125.44,-35.84
1728658419950.0,71.68,107.52,-35.84
1728658420000.0,71.68,89.6,-35.84
1728658420050.0,53.76,71.68,-17.92
1728658420100.0,53.76,71.68,-17.92
1728658420150.0,35.84,53.76,-17.92
1728658420200.0,35.84,35.84,-17.92
1728658420250.0,35.84,17.92,-17.92
1728658420300.0,35.84,17.92,0.0
1728658420350.0,0.0,0.0,17.92
1728658420400.0,-35.84,-17.92,35.84
1728658420450.0,-53.76,-35.84,35.84
1728658420500.0,-53.76,-53.76,53.76
1728658420550.0,-53.76,-71.68,35.84
1728658420600.0,-53.76,-89.6,35.84
1728658420650.0,-53.76,-89.6,35.84
1728658420700.0,-71.68,-89.6,35.84
1728658420750.0,-53.76,-89.6,35.84
1728658420800.0,-53.76,-89.6,35.84
1728658420850.0,-35.84,-71.68,35.84
1728658420900.0,-35.84,-71.68,17.92
1728658420950.0,-35.84,-53.76,17.92
1728658421000.0,0.0,-35.84,0.0
1728658421050.0,0.0,-35.84,0.0
1728658421100.0,17.92,-35.84,0.0
1728658421150.0,17.92,-35.84,0.0
1728658421200.0,17.92,-35.84,0.0
1728658421250.0,17.92,-35.84,-17.92
1728658421300.0,17.92,-35.84,-17.92
1728658421350.0,17.92,-53.76,-17.92
1728658421400.0,17.92,-35.84,-17.92
1728658421450.0,17.92,-53.76,-17.92
1728658421500.0,0.0,-53.76,0.0
1728658421550.0,0.0,-53.76,0.0
1728658421600.0,0.0,-53.76,17.92
1728658421650.0,-17.92,-35.84,17.92
1728658421700.0,-17.92,-35.84,17.92
1728658421750.0,-17.92,-35.84,35.84
1728658421800.0,-35.84,-35.84,35.84
1728658421850.0,-35.84,-35.84,35.84
1728658421900.0,-35.84,-35.84,35.84
1728658421950.0,-53.76,-17.92,35.84
1728658422000.0,-71.68,-17.92,35.84
1728658422050.0,-71.68,0.0,35.84
1728658422100.0,-53.76,17.92,0.0
1728658422150.0,-17.92,35.84,-17.92
1728658422200.0,-17.92,35.84,-17.92
1728658422250.0,-35.84,17.92,-17.92
1728658422300.0,-17.92,0.0,-17.92
1728658422350.0,17.92,0.0,-17.92
1728658422400.0,17.92,-17.92,-17.92
1728658422450.0,35.84,0.0,-17.92
1728658422500.0,35.84,0.0,-17.92
1728658422550.0,17.92,17.92,-17.92
1728658422600.0,17.92,35.84,0.0
1728658422650.0,0.0,53.76,0.0
1728658422700.0,-17.92,53.76,0.0
1728658422750.0,0.0,53.76,-17.92
1728658422800.0,35.84,35.84,-17.92
1728658422850.0,17.92,17.92,-17.92
1728658422900.0,0.0,17.92,-17.92
1728658422950.0,0.0,17.92,-17.92
1728658423000.0,17.92,17.92,-17.92
1728658423050.0,35.84,17.92,-17.92
1728658423100.0,35.84,17.92,-17.92
1728658423150.0,17.92,17.92,-17.92
1728658423200.0,35.84,17.92,-17.92
1728658423250.0,35.84,17.92,0.0
1728658423300.0,35.84,17.92,-17.92
1728658423350.0,53.76,17.92,-17.92
1728658423400.0,71.68,17.92,-17.92
1728658423450.0,53.76,17.92,0.0
1728658423500.0,17.92,0.0,17.92
1728658423550.0,0.0,-17.92,17.92
1728658423600.0,-17.92,-17.92,35.84
1728658423650.0,-35.84,-35.84,53.76
1728658423700.0,-35.84,-53.76,35.84
1728658423750.0,-35.84,-53.76,35.84
1728658423800.0,-35.84,-35.84,53.76
1728658423850.0,-35.84,-17.92,53.76
1728658423900.0,-17.92,-17.92,17.92
1728658423950.0,0.0,-17.92,-17.92
1728658424000.0,17.92,-17.92,-17.92
1728658424050.0,35.84,-17.92,-17.92
1728658424100.0,53.76,-17.92,-35.84
1728658424150.0,89.6,-17.92,-35.84
1728658424200.0,89.6,0.0,-53.76
1728658424250.0,107.52,0.0,-35.84
1728658424300.0,107.52,0.0,-35.84
1728658424350.0,89.6,0.0,-35.84
1728658424400.0,71.68,0.0,-35.84
1728658424450.0,35.84,0.0,-17.92
1728658424500.0,35.84,17.92,-17.92
1728658424550.0,17.92,0.0,-17.92
1728658424600.0,0.0,0.0,0.0
1728658424650.0,0.0,17.92,0.0
1728658424700.0,-17.92,0.0,0.0
1728658424750.0,-17.92,0.0,0.0
1728658424800.0,-17.92,0.0,0.0
1728658424850.0,-17.92,0.0,0.0
1728658424900.0,-17.92,0.0,0.0
1728658424950.0,-17.92,0.0,0.0
1728658425000.0,-35.84,0.0,17.92
1728658425050.0,-53.76,-17.92,17.92
1728658425100.0,-71.68,-17.92,17.92
1728658425150.0,-71.68,-35.84,35.84
1728658425200.0,-89.6,-35.84,35.84
1728658425250.0,-89.6,-35.84,35.84
1728658425300.0,-89.6,-35.84,35.84
1728658425350.0,-107.52,-35.84,35.84
1728658425400.0,-89.6,-35.84,17.92
1728658425450.0,-89.6,-35.84,17.92
1728658425500.0,-53.76,-17.92,0.0
1728658425550.0,-35.84,-17.92,0.0
1728658425600.0,-35.84,-17.92,-17.92
1728658425650.0,-17.92,0.0,-17.92
1728658425700.0,-17.92,0.0,-17.92
1728658425750.0,-17.92,0.0,-17.92
1728658425800.0,0.0,0.0,-17.92
1728658425850.0,0.0,17.92,-17.92
1728658425900.0,0.0,17.92,-17.92
1728658425950.0,17.92,17.92,-17.92
1728658426000.0,17.92,17.92,-17.92
1728658426050.0,17.92,17.92,-17.92
1728658426100.0,17.92,17.92,-17.92
1728658426150.0,17.92,17.92,0.0
1728658426200.0,0.0,17.92,0.0
1728658426250.0,0.0,17.92,0.0
1728658426300.0,-17.92,17.92,17.92
1728658426350.0,-17.92,17.92,17.92
1728658426400.0,-35.84,17.92,17.92
1728658426450.0,-35.84,17.92,17.92
1728658426500.0,-35.84,17.92,17.92
1728658426550.0,-35.84,17.92,17.92
1728658426600.0,-53.76,17.92,17.92
1728658426650.0,-53.76,17.92,17.92
1728658426700.0,-53.76,17.92,35.84
1728658426750.0,-53.76,17.92,35.84
1728658426800.0,-53.76,17.92,35.84
1728658426850.0,-53.76,17.92,35.84
1728658426900.0,-53.76,17.92,35.84
1728658426950.0,-35.84,35.84,35.84
1728658427000.0,-35.84,35.84,35.84
1728658427050.0,-17.92,35.84,35.84
1728658427100.0,17.92,35.84,35.84
1728658427150.0,53.76,35.84,17.92
1728658427200.0,71.68,35.84,0.0
1728658427250.0,125.44,53.76,-35.84
1728658427300.0,179.2,53.76,-53.76
1728658427350.0,286.72,53.76,-107.52
1728658427400.0,412.16,17.92,-179.2
1728658427450.0,465.92,-17.92,-215.04
1728658427500.0,394.24,-35.84,-215.04
1728658427550.0,268.8,-143.36,-71.68
1728658427600.0,-161.28,0.0,71.68
1728658427650.0,304.64,17.92,-143.36
1728658427700.0,71.68,-71.68,-143.36
1728658427750.0,107.52,71.68,-89.6
1728658427800.0,125.44,0.0,-89.6
1728658427850.0,107.52,17.92,-35.84
1728658427900.0,35.84,0.0,-17.92
1728658427950.0,35.84,0.0,0.0
1728658428000.0,17.92,-35.84,35.84
1728658428050.0,-17.92,35.84,17.92
1728658428100.0,-17.92,17.92,17.92
1728658428150.0,0.0,17.92,0.0
1728658428200.0,-17.92,0.0,0.0
1728658428250.0,-17.92,17.92,0.0
1728658428300.0,-17.92,0.0,0.0
1728658428350.0,-17.92,0.0,0.0
1728658428400.0,0.0,17.92,0.0
1728658428450.0,17.92,17.92,0.0
1728658428500.0,17.92,17.92,0.0
1728658428550.0,17.92,17.92,0.0
1728658428600.0,0.0,17.92,17.92
1728658428650.0,0.0,17.92,17.92
1728658428700.0,0.0,17.92,17.92
1728658428750.0,0.0,0.0,17.92
1728658428800.0,-17.92,17.92,17.92
1728658428850.0,-35.84,17.92,17.92
1728658428900.0,-71.68,17.92,17.92
1728658428950.0,-71.68,0.0,35.84
1728658429000.0,-71.68,17.92,35.84
1728658429050.0,-89.6,17.92,17.92
1728658429100.0,-107.52,35.84,17.92
1728658429150.0,-107.52,53.76,0.0
1728658429200.0,-107.52,107.52,-17.92
1728658429250.0,-89.6,89.6,-17.92
1728658429300.0,-17.92,89.6,0.0
1728658429350.0,-17.92,89.6,17.92
1728658429400.0,-17.92,89.6,35.84
1728658429450.0,-17.92,107.52,53.76
1728658429500.0,-35.84,125.44,89.6
1728658429550.0,-71.68,107.52,107.52
1728658429600.0,-53.76,143.36,89.6
1728658429650.0,-17.92,107.52,53.76
1728658429700.0,17.92,71.68,35.84
1728658429750.0,35.84,71.68,17.92
1728658429800.0,35.84,53.76,17.92
1728658429850.0,35.84,53.76,17.92
1728658429900.0,35.84,53.76,17.92
1728658429950.0,35.84,17.92,17.92
1728658430000.0,35.84,35.84,17.92
1728658430050.0,35.84,35.84,17.92
1728658430100.0,35.84,35.84,17.92
1728658430150.0,53.76,17.92,17.92
1728658430200.0,53.76,17.92,17.92
1728658430250.0,35.84,0.0,0.0
1728658430300.0,17.92,0.0,17.92
1728658430350.0,0.0,0.0,17.92
1728658430400.0,-35.84,-17.92,17.92
1728658430450.0,-53.76,-35.84,17.92
1728658430500.0,-53.76,-53.76,0.0
1728658430550.0,-53.76,-53.76,0.0
1728658430600.0,-53.76,-71.68,0.0
1728658430650.0,-53.76,-71.68,0.0
1728658430700.0,-35.84,-71.68,-17.92
1728658430750.0,-35.84,-71.68,-17.92
1728658430800.0,-35.84,-71.68,-17.92
1728658430850.0,-35.84,-53.76,-17.92
1728658430900.0,-17.92,-53.76,-17.92
1728658430950.0,-17.92,-53.76,-17.92
1728658431000.0,-17.92,-35.84,-17.92
1728658431050.0,-17.92,-35.84,-17.92
1728658431100.0,-17.92,-35.84,-17.92
1728658431150.0,0.0,-35.84,0.0
1728658431200.0,0.0,-17.92,0.0
1728658431250.0,0.0,-17.92,0.0
1728658431300.0,0.0,-17.92,0.0
1728658431350.0,0.0,-17.92,0.0
1728658431400.0,0.0,-17.92,0.0
1728658431450.0,-17.92,-17.92,17.92
1728658431500.0,-17.92,-35.84,17.92
1728658431550.0,-17.92,-35.84,17.92
1728658431600.0,-17.92,-35.84,17.92
1728658431650.0,-35.84,-35.84,17.92
1728658431700.0,-35.84,-35.84,35.84
1728658431750.0,-35.84,-53.76,35.84
1728658431800.0,-35.84,-35.84,53.76
1728658431850.0,-17.92,-35.84,53.76
1728658431900.0,-35.84,-17.92,53.76
1728658431950.0,-17.92,-17.92,35.84
1728658432000.0,-35.84,0.0,17.92
1728658432050.0,-17.92,0.0,17.92
1728658432100.0,-35.84,-17.92,17.92
1728658432150.0,-35.84,-17.92,17.92
1728658432200.0,-35.84,-17.92,35.84
1728658432250.0,-17.92,-17.92,17.92
1728658432300.0,-17.92,0.0,17.92
1728658432350.0,0.0,0.0,0.0
1728658432400.0,0.0,0.0,0.0
1728658432450.0,17.92,0.0,-17.92
1728658432500.0,35.84,0.0,-17.92
1728658432550.0,35.84,0.0,-17.92
1728658432600.0,35.84,0.0,-17.92
1728658432650.0,17.92,17.92,-17.92
1728658432700.0,0.0,35.84,-17.92
1728658432750.0,0.0,35.84,0.0
1728658432800.0,0.0,17.92,-17.92
1728658432850.0,0.0,17.92,-17.92
1728658432900.0,0.0,35.84,-17.92
1728658432950.0,-17.92,17.92,0.0
1728658433000.0,-17.92,17.92,0.0
1728658433050.0,-17.92,17.92,0.0
1728658433100.0,0.0,17.92,0.0
1728658433150.0,0.0,17.92,0.0
1728658433200.0,-17.92,0.0,17.92
1728658433250.0,-17.92,0.0,17.92
1728658433300.0,-17.92,-17.92,17.92
1728658433350.0,-17.92,0.0,35.84
1728658433400.0,-17.92,-17.92,53.76
1728658433450.0,-35.84,-17.92,71.68
1728658433500.0,-35.84,0.0,53.76
1728658433550.0,-17.92,-17.92,53.76
1728658433600.0,0.0,0.0,35.84
1728658433650.0,17.92,0.0,0.0
1728658433700.0,17.92,0.0,-17.92
1728658433750.0,53.76,0.0,-17.92
1728658433800.0,53.76,0.0,-35.84
1728658433850.0,89.6,0.0,-35.84
1728658433900.0,107.52,-17.92,-53.76
1728658433950.0,125.44,0.0,-53.76
1728658434000.0,125.44,0.0,-53.76
1728658434050.0,143.36,17.92,-53.76
1728658434100.0,125.44,17.92,-53.76
1728658434150.0,89.6,17.92,-53.76
1728658434200.0,53.76,17.92,-35.84
1728658434250.0,35.84,17.92,-17.92
1728658434300.0,17.92,17.92,0.0
1728658434350.0,17.92,17.92,0.0
1728658434400.0,0.0,17.92,0.0
1728658434450.0,0.0,0.0,0.0
1728658434500.0,0.0,0.0,0.0
1728658434550.0,-17.92,0.0,0.0
1728658434600.0,-17.92,0.0,0.0
1728658434650.0,-35.84,0.0,17.92
1728658434700.0,-53.76,-17.92,17.92
1728658434750.0,-71.68,-17.92,35.84
1728658434800.0,-89.6,-35.84,35.84
1728658434850.0,-107.52,-35.84,35.84
1728658434900.0,-107.52,-35.84,53.76
1728658434950.0,-107.52,-35.84,53.76
1728658435000.0,-107.52,-53.76,35.84
1728658435050.0,-107.52,-53.76,35.84
1728658435100.0,-89.6,-53.76,17.92
1728658435150.0,-71.68,-35.84,0.0
1728658435200.0,-53.76,-35.84,-17.92
1728658435250.0,-35.84,-17.92,-17.92
1728658435300.0,-17.92,0.0,-35.84
1728658435350.0,-17.92,0.0,-35.84
1728658435400.0,-17.92,0.0,-35.84
1728658435450.0,-17.92,0.0,-35.84
1728658435500.0,0.0,0.0,-35.84
1728658435550.0,0.0,17.92,-35.84
1728658435600.0,0.0,17.92,-35.84
1728658435650.0,0.0,17.92,-17.92
1728658435700.0,0.0,17.92,-17.92
1728658435750.0,0.0,17.92,0.0
1728658435800.0,0.0,17.92,0.0
1728658435850.0,0.0,17.92,0.0
1728658435900.0,0.0,17.92,0.0
1728658435950.0,-17.92,17.92,0.0
1728658436000.0,-17.92,17.92,0.0
1728658436050.0,-17.92,17.92,17.92
1728658436100.0,-35.84,17.92,17.92
1728658436150.0,-35.84,17.92,17.92
1728658436200.0,-53.76,17.92,17.92
1728658436250.0,-53.76,17.92,17.92
1728658436300.0,-71.68,17.92,35.84
1728658436350.0,-89.6,17.92,35.84
1728658436400.0,-71.68,35.84,35.84
1728658436450.0,-71.68,35.84,17.92
1728658436500.0,-71.68,35.84,17.92
1728658436550.0,-53.76,35.84,17.92
1728658436600.0,-35.84,35.84,17.92
1728658436650.0,-17.92,35.84,17.92
1728658436700.0,0.0,35.84,17.92
1728658436750.0,35.84,17.92,17.92
1728658436800.0,89.6,35.84,0.0
1728658436850.0,143.36,35.84,-17.92
1728658436900.0,232.96,53.76,-35.84
1728658436950.0,340.48,53.76,-71.68
1728658437000.0,430.08,-17.92,-125.44
1728658437050.0,501.76,0.0,-161.28
1728658437100.0,394.24,-71.68,-143.36
1728658437150.0,232.96,-89.6,-125.44
1728658437200.0,-107.52,17.92,0.0
1728658437250.0,161.28,53.76,-107.52
1728658437300.0,-107.52,-125.44,-143.36
1728658437350.0,179.2,179.2,-125.44
1728658437400.0,125.44,-35.84,-71.68
1728658437450.0,71.68,35.84,-35.84
1728658437500.0,35.84,0.0,-17.92
1728658437550.0,53.76,0.0,0.0
1728658437600.0,0.0,-17.92,35.84
1728658437650.0,17.92,89.6,17.92
1728658437700.0,17.92,35.84,17.92
1728658437750.0,0.0,35.84,17.92
1728658437800.0,-17.92,-17.92,17.92
1728658437850.0,-17.92,17.92,17.92
1728658437900.0,-35.84,0.0,0.0
1728658437950.0,-17.92,17.92,0.0
1728658438000.0,-89.6,143.36,-35.84
1728658438050.0,-17.92,-35.84,0.0
1728658438100.0,-17.92,17.92,0.0
1728658438150.0,-17.92,0.0,0.0
1728658438200.0,-17.92,17.92,0.0
1728658438250.0,-53.76,0.0,17.92
1728658438300.0,-71.68,35.84,17.92
1728658438350.0,-71.68,17.92,35.84
1728658438400.0,-53.76,17.92,17.92
1728658438450.0,-53.76,17.92,17.92
1728658438500.0,-89.6,35.84,35.84
1728658438550.0,-89.6,17.92,17.92
1728658438600.0,-107.52,17.92,0.0
1728658438650.0,-89.6,17.92,0.0
1728658438700.0,-71.68,17.92,0.0
1728658438750.0,-71.68,17.92,0.0
1728658438800.0,-71.68,17.92,17.92
1728658438850.0,-71.68,17.92,17.92
1728658438900.0,-89.6,17.92,17.92
1728658438950.0,-53.76,17.92,17.92
1728658439000.0,-53.76,35.84,17.92
1728658439050.0,-53.76,35.84,17.92
1728658439100.0,-53.76,35.84,35.84
1728658439150.0,-53.76,17.92,35.84
1728658439200.0,-89.6,17.92,53.76
1728658439250.0,-89.6,17.92,53.76
1728658439300.0,-107.52,17.92,71.68
1728658439350.0,-107.52,0.0,71.68
1728658439400.0,-107.52,0.0,71.68
1728658439450.0,-89.6,0.0,71.68
1728658439500.0,-71.68,0.0,53.76
1728658439550.0,-89.6,0.0,35.84
1728658439600.0,-53.76,17.92,35.84
1728658439650.0,-35.84,17.92,17.92
1728658439700.0,-35.84,17.92,17.92
1728658439750.0,-17.92,17.92,17.92
1728658439800.0,-17.92,35.84,17.92
1728658439850.0,-17.92,35.84,0.0
1728658439900.0,-17.92,53.76,0.0
1728658439950.0,-35.84,53.76,0.0
1728658440000.0,-35.84,53.76,0.0
1728658440050.0,-71.68,35.84,0.0
1728658440100.0,-35.84,17.92,0.0
1728658440150.0,0.0,35.84,-17.92
1728658440200.0,0.0,53.76,0.0
1728658440250.0,-17.92,35.84,17.92
1728658440300.0,-17.92,35.84,17.92
1728658440350.0,0.0,35.84,35.84
1728658440400.0,0.0,17.92,35.84
1728658440450.0,0.0,17.92,35.84
1728658440500.0,0.0,35.84,35.84
1728658440550.0,17.92,35.84,35.84
1728658440600.0,35.84,35.84,35.84
1728658440650.0,35.84,53.76,35.84
1728658440700.0,53.76,53.76,35.84
1728658440750.0,53.76,53.76,35.84
1728658440800.0,53.76,71.68,35.84
1728658440850.0,53.76,71.68,35.84
1728658440900.0,53.76,89.6,53.76
1728658440950.0,53.76,89.6,35.84
1728658441000.0,53.76,89.6,35.84
1728658441050.0,53.76,89.6,17.92
1728658441100.0,53.76,71.68,17.92
1728658441150.0,53.76,53.76,17.92
1728658441200.0,53.76,53.76,17.92
1728658441250.0,53.76,53.76,0.0
1728658441300.0,53.76,35.84,0.0
1728658441350.0,53.76,35.84,0.0
1728658441400.0,35.84,0.0,0.0
1728658441450.0,35.84,0.0,0.0
1728658441500.0,17.92,-17.92,0.0
1728658441550.0,0.0,-35.84,17.92
1728658441600.0,-17.92,-53.76,17.92
1728658441650.0,-35.84,-71.68,17.92
1728658441700.0,-53.76,-89.6,17.92
1728658441750.0,-53.76,-89.6,17.92
1728658441800.0,-53.76,-107.52,17.92
1728658441850.0,-53.76,-107.52,17.92
1728658441900.0,-35.84,-125.44,17.92
1728658441950.0,-35.84,-125.44,17.92
1728658442000.0,-35.84,-125.44,0.0
1728658442050.0,-53.76,-125.44,0.0
1728658442100.0,-53.76,-125.44,0.0
1728658442150.0,-53.76,-107.52,17.92
1728658442200.0,-53.76,-107.52,17.92
1728658442250.0,-35.84,-89.6,17.92
1728658442300.0,-35.84,-89.6,17.92
1728658442350.0,-35.84,-71.68,17.92
1728658442400.0,-35.84,-53.76,17.92
1728658442450.0,-53.76,-35.84,17.92
1728658442500.0,-53.76,-35.84,17.92
1728658442550.0,-53.76,-35.84,17.92
1728658442600.0,-53.76,-17.92,17.92
1728658442650.0,-35.84,-35.84,17.92
1728658442700.0,-17.92,-17.92,0.0
1728658442750.0,-17.92,-17.92,0.0
1728658442800.0,-35.84,-17.92,17.92
1728658442850.0,-35.84,0.0,17.92
1728658442900.0,-53.76,17.92,35.84
1728658442950.0,-35.84,17.92,17.92
1728658443000.0,-35.84,17.92,17.92
1728658443050.0,-17.92,35.84,17.92
1728658443100.0,-35.84,35.84,0.0
1728658443150.0,-17.92,35.84,17.92
1728658443200.0,-17.92,35.84,17.92
1728658443250.0,0.0,17.92,17.92
1728658443300.0,0.0,0.0,17.92
1728658443350.0,0.0,-17.92,17.92
1728658443400.0,0.0,-35.84,17.92
1728658443450.0,0.0,-35.84,0.0
1728658443500.0,-35.84,-35.84,0.0
1728658443550.0,-35.84,-17.92,0.0
1728658443600.0,0.0,-17.92,0.0
1728658443650.0,0.0,-17.92,-17.92
1728658443700.0,0.0,0.0,0.0
1728658443750.0,-17.92,0.0,0.0
1728658443800.0,-35.84,0.0,0.0
1728658443850.0,-35.84,17.92,17.92
1728658443900.0,-35.84,17.92,17.92
1728658443950.0,-53.76,17.92,17.92
1728658444000.0,-53.76,17.92,17.92
1728658444050.0,-53.76,17.92,17.92
1728658444100.0,-53.76,17.92,17.92
1728658444150.0,-71.68,0.0,17.92
1728658444200.0,-71.68,-17.92,17.92
1728658444250.0,-53.76,-35.84,17.92
1728658444300.0,-17.92,-17.92,0.0
1728658444350.0,-17.92,0.0,0.0
1728658444400.0,-17.92,17.92,17.92
1728658444450.0,-17.92,17.92,0.0
1728658444500.0,0.0,17.92,0.0
1728658444550.0,0.0,17.92,0.0
1728658444600.0,17.92,17.92,0.0
1728658444650.0,17.92,17.92,0.0
1728658444700.0,17.92,17.92,0.0
1728658444750.0,35.84,17.92,0.0
1728658444800.0,35.84,0.0,-17.92
1728658444850.0,53.76,0.0,-17.92
1728658444900.0,53.76,0.0,-17.92
1728658444950.0,53.76,0.0,-17.92
1728658445000.0,53.76,0.0,-17.92
1728658445050.0,53.76,0.0,-17.92
1728658445100.0,53.76,-17.92,-35.84
1728658445150.0,53.76,-17.92,-35.84
1728658445200.0,53.76,-17.92,-35.84
1728658445250.0,53.76,0.0,-35.84
1728658445300.0,71.68,17.92,-35.84
1728658445350.0,89.6,35.84,-53.76
1728658445400.0,107.52,17.92,-53.76
1728658445450.0,107.52,17.92,-53.76
1728658445500.0,89.6,0.0,-53.76
1728658445550.0,71.68,0.0,-35.84
1728658445600.0,53.76,0.0,-35.84
1728658445650.0,53.76,0.0,-17.92
1728658445700.0,53.76,0.0,-17.92
1728658445750.0,35.84,0.0,-17.92
1728658445800.0,17.92,0.0,-17.92
1728658445850.0,17.92,0.0,-17.92
1728658445900.0,17.92,0.0,-17.92
1728658445950.0,17.92,0.0,-35.84
1728658446000.0,17.92,0.0,-17.92
1728658446050.0,17.92,0.0,-17.92
1728658446100.0,17.92,0.0,-17.92
1728658446150.0,17.92,-17.92,-17.92
1728658446200.0,17.92,-17.92,-17.92
1728658446250.0,17.92,-17.92,-17.92
1728658446300.0,35.84,-17.92,0.0
1728658446350.0,17.92,-17.92,0.0
1728658446400.0,17.92,-17.92,0.0
1728658446450.0,17.92,-17.92,0.0
1728658446500.0,17.92,0.0,0.0
1728658446550.0,17.92,0.0,0.0
1728658446600.0,17.92,0.0,0.0
1728658446650.0,35.84,0.0,-17.92
1728658446700.0,35.84,0.0,-17.92
1728658446750.0,35.84,0.0,-17.92
1728658446800.0,53.76,0.0,-17.92
1728658446850.0,53.76,0.0,-17.92
1728658446900.0,53.76,0.0,-17.92
1728658446950.0,71.68,0.0,-17.92
1728658447000.0,71.68,0.0,-35.84
1728658447050.0,71.68,0.0,-35.84
1728658447100.0,71.68,0.0,-35.84
1728658447150.0,71.68,0.0,-35.84
1728658447200.0,71.68,0.0,-17.92
1728658447250.0,71.68,0.0,-35.84
1728658447300.0,71.68,0.0,-17.92
1728658447350.0,71.68,0.0,-35.84
1728658447400.0,71.68,0.0,-35.84
1728658447450.0,53.76,0.0,-35.84
1728658447500.0,53.76,0.0,-17.92
1728658447550.0,53.76,0.0,-17.92
1728658447600.0,53.76,0.0,-17.92
1728658447650.0,53.76,0.0,-17.92
1728658447700.0,53.76,17.92,-17.92
1728658447750.0,53.76,17.92,-17.92
1728658447800.0,53.76,17.92,-17.92
1728658447850.0,35.84,0.0,-17.92
1728658447900.0,35.84,0.0,-17.92
1728658447950.0,17.92,0.0,0.0
1728658448000.0,17.92,0.0,0.0
1728658448050.0,17.92,0.0,0.0
1728658448100.0,17.92,0.0,0.0
1728658448150.0,17.92,0.0,0.0
1728658448200.0,17.92,0.0,0.0
1728658448250.0,17.92,0.0,0.0
1728658448300.0,17.92,0.0,0.0
1728658448350.0,17.92,0.0,0.0
1728658448400.0,17.92,0.0,-17.92
1728658448450.0,17.92,0.0,-17.92
1728658448500.0,17.92,0.0,0.0
1728658448550.0,17.92,0.0,0.0
1728658448600.0,17.92,0.0,0.0
1728658448650.0,17.92,0.0,0.0
1728658448700.0,17.92,0.0,0.0
1728658448750.0,17.92,0.0,0.0
1728658448800.0,17.92,0.0,0.0
1728658448850.0,17.92,0.0,0.0
1728658448900.0,17.92,0.0,0.0
1728658448950.0,0.0,0.0,0.0
1728658449000.0,0.0,0.0,0.0
1728658449050.0,0.0,0.0,0.0
1728658449100.0,0.0,0.0,0.0
1728658449150.0,-17.92,0.0,0.0
1728658449200.0,-17.92,0.0,0.0
1728658449250.0,-35.84,0.0,0.0
1728658449300.0,-35.84,0.0,17.92
1728658449350.0,-35.84,0.0,17.92
1728658449400.0,-35.84,0.0,17.92
1728658449450.0,-35.84,0.0,17.92
1728658449500.0,-35.84,0.0,0.0
1728658449550.0,-35.84,17.92,17.92
1728658449600.0,-35.84,17.92,17.92
1728658449650.0,-35.84,17.92,17.92
1728658449700.0,-35.84,0.0,17.92
1728658449750.0,-35.84,0.0,17.92
1728658449800.0,-35.84,0.0,17.92
1728658449850.0,-35.84,0.0,17.92
1728658449900.0,-35.84,17.92,17.92
1728658449950.0,-35.84,17.92,17.92
1728658450000.0,-35.84,17.92,17.92
1728658450050.0,-35.84,17.92,17.92
1728658450100.0,-53.76,17.92,17.92
1728658450150.0,-53.76,17.92,17.92
1728658450200.0,-53.76,17.92,17.92
1728658450250.0,-35.84,0.0,17.92
1728658450300.0,-35.84,0.0,0.0
1728658450350.0,-35.84,0.0,0.0
1728658450400.0,-35.84,-17.92,0.0
1728658450450.0,-17.92,0.0,0.0
1728658450500.0,-17.92,0.0,0.0
1728658450550.0,-17.92,0.0,17.92
1728658450600.0,-17.92,0.0,17.92
1728658450650.0,-17.92,0.0,17.92
1728658450700.0,0.0,0.0,17.92
1728658450750.0,0.0,0.0,0.0
1728658450800.0,0.0,0.0,0.0
1728658450850.0,0.0,17.92,0.0
1728658450900.0,0.0,17.92,0.0
1728658450950.0,17.92,0.0,0.0
1728658451000.0,17.92,0.0,0.0
1728658451050.0,17.92,0.0,0.0
1728658451100.0,17.92,0.0,0.0
1728658451150.0,17.92,0.0,0.0
1728658451200.0,17.92,0.0,0.0
1728658451250.0,17.92,-17.92,0.0
1728658451300.0,17.92,-35.84,0.0
1728658451350.0,0.0,-17.92,-17.92
1728658451400.0,-17.92,0.0,0.0
1728658451450.0,0.0,0.0,0.0
1728658451500.0,17.92,17.92,-17.92
1728658451550.0,0.0,17.92,0.0
1728658451600.0,0.0,0.0,0.0
1728658451650.0,0.0,0.0,0.0
1728658451700.0,0.0,17.92,0.0
1728658451750.0,0.0,17.92,0.0
1728658451800.0,0.0,17.92,0.0
1728658451850.0,0.0,17.92,0.0
1728658451900.0,-17.92,17.92,0.0
1728658451950.0,-17.92,0.0,0.0
1728658452000.0,0.0,0.0,0.0
1728658452050.0,0.0,0.0,0.0
1728658452100.0,0.0,-17.92,0.0
1728658452150.0,-17.92,-17.92,0.0
1728658452200.0,-17.92,-35.84,0.0
1728658452250.0,0.0,-17.92,0.0
1728658452300.0,0.0,0.0,-17.92
1728658452350.0,0.0,0.0,0.0
1728658452400.0,0.0,0.0,-17.92
1728658452450.0,17.92,17.92,-17.92
1728658452500.0,17.92,17.92,-17.92
1728658452550.0,17.92,17.92,-17.92
1728658452600.0,17.92,0.0,-17.92
1728658452650.0,17.92,0.0,-17.92
1728658452700.0,17.92,0.0,-17.92
1728658452750.0,17.92,0.0,0.0
1728658452800.0,35.84,0.0,0.0
1728658452850.0,35.84,0.0,0.0
1728658452900.0,17.92,0.0,0.0
1728658452950.0,17.92,0.0,0.0
1728658453000.0,17.92,0.0,0.0
1728658453050.0,17.92,0.0,0.0
1728658453100.0,17.92,0.0,0.0
1728658453150.0,17.92,0.0,0.0
1728658453200.0,17.92,0.0,0.0
1728658453250.0,0.0,0.0,0.0
1728658453300.0,0.0,0.0,0.0
1728658453350.0,0.0,0.0,0.0
1728658453400.0,0.0,0.0,0.0
1728658453450.0,0.0,0.0,0.0
1728658453500.0,0.0,0.0,0.0
1728658453550.0,0.0,0.0,0.0
1728658453600.0,0.0,0.0,0.0
1728658453650.0,0.0,-17.92,0.0
1728658453700.0,0.0,0.0,0.0
1728658453750.0,0.0,0.0,0.0
1728658453800.0,0.0,0.0,0.0
1728658453850.0,0.0,0.0,0.0
1728658453900.0,0.0,0.0,0.0
1728658453950.0,0.0,0.0,0.0
1728658454000.0,0.0,0.0,0.0
1728658454050.0,0.0,0.0,0.0
1728658454100.0,0.0,0.0,0.0
1728658454150.0,0.0,0.0,0.0
1728658454200.0,0.0,0.0,0.0
1728658454250.0,0.0,0.0,0.0
1728658454300.0,0.0,0.0,0.0
1728658454350.0,0.0,0.0,0.0
1728658454400.0,0.0,0.0,0.0
1728658454450.0,0.0,0.0,0.0
1728658454500.0,0.0,0.0,0.0
1728658454550.0,0.0,0.0,0.0
1728658454600.0,0.0,0.0,0.0
1728658454650.0,0.0,0.0,0.0
1728658454700.0,0.0,0.0,0.0
1728658454750.0,0.0,0.0,0.0
1728658454800.0,0.0,0.0,0.0
1728658454850.0,0.0,0.0,0.0
1728658454900.0,0.0,0.0,0.0
1728658454950.0,0.0,0.0,0.0
1728658455000.0,0.0,0.0,0.0
1728658455050.0,0.0,0.0,0.0
1728658455100.0,0.0,0.0,0.0
1728658455150.0,0.0,0.0,0.0
1728658455200.0,0.0,0.0,0.0
1728658455250.0,0.0,0.0,0.0
1728658455300.0,0.0,0.0,0.0
1728658455350.0,0.0,0.0,0.0
1728658455400.0,0.0,0.0,0.0
1728658455450.0,0.0,0.0,0.0
1728658455500.0,0.0,0.0,0.0
1728658455550.0,0.0,0.0,0.0
1728658455600.0,0.0,0.0,0.0
1728658455650.0,0.0,0.0,0.0
1728658455700.0,0.0,0.0,0.0
1728658455750.0,0.0,0.0,0.0
1728658455800.0,0.0,0.0,0.0
1728658455850.0,0.0,0.0,0.0
1728658455900.0,0.0,0.0,0.0
1728658455950.0,0.0,0.0,0.0
1728658456000.0,0.0,0.0,0.0
1728658456050.0,0.0,0.0,0.0
1728658456100.0,0.0,0.0,0.0
1728658456150.0,0.0,0.0,0.0
1728658456200.0,0.0,0.0,0.0
1728658456250.0,0.0,0.0,0.0
1728658456300.0,0.0,0.0,0.0
1728658456350.0,0.0,0.0,0.0
1728658456400.0,0.0,0.0,0.0
1728658456450.0,17.92,0.0,0.0
1728658456500.0,0.0,0.0,0.0
1728658456550.0,0.0,0.0,0.0
1728658456600.0,0.0,0.0,0.0
1728658456650.0,0.0,0.0,0.0
1728658456700.0,0.0,0.0,0.0
1728658456750.0,0.0,0.0,0.0
1728658456800.0,0.0,0.0,0.0
1728658456850.0,0.0,0.0,0.0
1728658456900.0,0.0,0.0,0.0
1728658456950.0,0.0,0.0,0.0
1728658457000.0,0.0,0.0,0.0
1728658457050.0,0.0,0.0,0.0
1728658457100.0,0.0,0.0,0.0
1728658457150.0,0.0,0.0,0.0
1728658457200.0,0.0,0.0,0.0
1728658457250.0,0.0,0.0,0.0
1728658457300.0,0.0,0.0,0.0
1728658457350.0,0.0,0.0,0.0
1728658457400.0,0.0,0.0,0.0
1728658457450.0,0.0,0.0,0.0
1728658457500.0,0.0,0.0,0.0
1728658457550.0,0.0,0.0,0.0
1728658457600.0,0.0,0.0,0.0
1728658457650.0,0.0,0.0,0.0
1728658457700.0,0.0,0.0,0.0
1728658457750.0,0.0,0.0,0.0
1728658457800.0,0.0,0.0,0.0
1728658457850.0,0.0,0.0,0.0
1728658457900.0,0.0,0.0,0.0
1728658457950.0,0.0,0.0,0.0
1728658458000.0,0.0,0.0,0.0
1728658458050.0,0.0,0.0,0.0
1728658458100.0,0.0,0.0,0.0
1728658458150.0,0.0,0.0,0.0
1728658458200.0,0.0,0.0,0.0
1728658458250.0,0.0,0.0,0.0
1728658458300.0,0.0,0.0,0.0
1728658458350.0,0.0,0.0,0.0
1728658458400.0,0.0,0.0,0.0
1728658458450.0,0.0,0.0,0.0
1728658458500.0,0.0,0.0,0.0
1728658458550.0,0.0,0.0,0.0
1728658458600.0,0.0,0.0,0.0
1728658458650.0,0.0,0.0,0.0
1728658458700.0,0.0,0.0,0.0
1728658458750.0,0.0,0.0,0.0
1728658458800.0,0.0,0.0,0.0
1728658458850.0,0.0,0.0,0.0
1728658458900.0,0.0,0.0,0.0
1728658458950.0,0.0,0.0,0.0
1728658459000.0,0.0,0.0,0.0
1728658459050.0,0.0,0.0,0.0
1728658459100.0,0.0,0.0,0.0
1728658459150.0,0.0,0.0,0.0
1728658459200.0,0.0,0.0,0.0
1728658459250.0,0.0,0.0,0.0
1728658459300.0,0.0,0.0,0.0
1728658459350.0,0.0,0.0,0.0
1728658459400.0,0.0,0.0,0.0
1728658459450.0,0.0,0.0,0.0
1728658459500.0,0.0,0.0,0.0
1728658459550.0,0.0,0.0,0.0
1728658459600.0,0.0,0.0,0.0
1728658459650.0,0.0,0.0,0.0
1728658459700.0,0.0,0.0,0.0
1728658459750.0,0.0,0.0,0.0
1728658459800.0,0.0,0.0,0.0
1728658459850.0,0.0,0.0,0.0
1728658459900.0,0.0,0.0,0.0
1728658459950.0,0.0,0.0,0.0
1728658460000.0,0.0,0.0,0.0
1728658460050.0,0.0,0.0,0.0
1728658460100.0,0.0,0.0,0.0
1728658460150.0,0.0,0.0,0.0
1728658460200.0,0.0,17.92,0.0
1728658460250.0,0.0,17.92,0.0
1728658460300.0,0.0,17.92,0.0
1728658460350.0,0.0,17.92,0.0
1728658460400.0,0.0,17.92,0.0
1728658460450.0,0.0,17.92,0.0
1728658460500.0,0.0,0.0,0.0
1728658460550.0,0.0,0.0,0.0
1728658460600.0,0.0,0.0,0.0
1728658460650.0,0.0,0.0,0.0
1728658460700.0,-17.92,0.0,0.0
1728658460750.0,0.0,0.0,0.0
1728658460800.0,0.0,0.0,0.0
1728658460850.0,0.0,17.92,0.0
1728658460900.0,0.0,17.92,0.0
1728658460950.0,-17.92,0.0,0.0
1728658461000.0,-17.92,0.0,17.92
1728658461050.0,0.0,0.0,0.0
1728658461100.0,0.0,0.0,0.0
1728658461150.0,0.0,0.0,0.0
1728658461200.0,0.0,0.0,0.0
1728658461250.0,0.0,0.0,0.0
1728658461300.0,0.0,0.0,0.0
1728658461350.0,0.0,0.0,0.0
1728658461400.0,0.0,0.0,0.0
1728658461450.0,0.0,0.0,0.0
1728658461500.0,0.0,0.0,0.0
1728658461550.0,0.0,-17.92,0.0
1728658461600.0,0.0,0.0,0.0
1728658461650.0,0.0,0.0,0.0
1728658461700.0,0.0,0.0,0.0
1728658461750.0,0.0,0.0,0.0
1728658461800.0,0.0,0.0,0.0
1728658461850.0,0.0,0.0,0.0
1728658461900.0,0.0,0.0,0.0
1728658461950.0,0.0,0.0,0.0
1728658462000.0,0.0,0.0,0.0
1728658462050.0,0.0,0.0,0.0
1728658462100.0,0.0,0.0,0.0
1728658462150.0,0.0,0.0,0.0
1728658462200.0,0.0,0.0,0.0
1728658462250.0,0.0,0.0,0.0
1728658462300.0,0.0,0.0,0.0
1728658462350.0,0.0,0.0,0.0
1728658462400.0,0.0,0.0,0.0
1728658462450.0,0.0,0.0,0.0
1728658462500.0,0.0,0.0,0.0
1728658462550.0,0.0,0.0,0.0
1728658462600.0,0.0,0.0,0.0
1728658462650.0,0.0,0.0,0.0
1728658462700.0,0.0,0.0,0.0
1728658462750.0,0.0,0.0,0.0
1728658462800.0,0.0,0.0,0.0
1728658462850.0,0.0,0.0,0.0
1728658462900.0,0.0,0.0,0.0
1728658462950.0,0.0,0.0,0.0
1728658463000.0,0.0,0.0,0.0
1728658463050.0,0.0,0.0,0.0
1728658463100.0,0.0,0.0,0.0
1728658463150.0,0.0,0.0,0.0
1728658463200.0,0.0,0.0,0.0
1728658463250.0,0.0,0.0,0.0
1728658463300.0,0.0,0.0,0.0
1728658463350.0,0.0,0.0,0.0
1728658463400.0,0.0,0.0,0.0
1728658463450.0,0.0,0.0,0.0
1728658463500.0,0.0,0.0,0.0
1728658463550.0,0.0,0.0,0.0
1728658463600.0,0.0,0.0,0.0
1728658463650.0,0.0,0.0,0.0
1728658463700.0,0.0,0.0,0.0
1728658463750.0,0.0,0.0,0.0
1728658463800.0,0.0,0.0,0.0
1728658463850.0,0.0,0.0,0.0
1728658463900.0,0.0,0.0,0.0
1728658463950.0,0.0,0.0,0.0
1728658464000.0,0.0,0.0,0.0
1728658464050.0,0.0,0.0,0.0
1728658464100.0,0.0,0.0,0.0
1728658464150.0,0.0,0.0,0.0
1728658464200.0,0.0,0.0,0.0
1728658464250.0,0.0,0.0,0.0
1728658464300.0,0.0,0.0,0.0
1728658464350.0,0.0,0.0,0.0
1728658464400.0,0.0,0.0,0.0
1728658464450.0,0.0,0.0,0.0
1728658464500.0,0.0,0.0,0.0
1728658464550.0,0.0,0.0,0.0
1728658464600.0,0.0,0.0,0.0
1728658464650.0,0.0,0.0,0.0
1728658464700.0,0.0,0.0,0.0
1728658464750.0,0.0,0.0,0.0
1728658464800.0,0.0,0.0,0.0
1728658464850.0,0.0,0.0,0.0
1728658464900.0,0.0,0.0,0.0
1728658464950.0,0.0,0.0,0.0
1728658465000.0,0.0,0.0,0.0
1728658465050.0,0.0,0.0,0.0
1728658465100.0,0.0,0.0,0.0
1728658465150.0,0.0,0.0,0.0
1728658465200.0,0.0,0.0,0.0
1728658465250.0,0.0,0.0,0.0
1728658465300.0,0.0,0.0,0.0
1728658465350.0,0.0,0.0,0.0
1728658465400.0,0.0,0.0,0.0
1728658465450.0,0.0,0.0,0.0
1728658465500.0,0.0,0.0,0.0
1728658465550.0,0.0,0.0,0.0
1728658465600.0,0.0,0.0,0.0
1728658465650.0,0.0,0.0,0.0
1728658465700.0,0.0,0.0,0.0
1728658465750.0,0.0,0.0,0.0
1728658465800.0,0.0,0.0,0.0
1728658465850.0,0.0,0.0,0.0
1728658465900.0,0.0,0.0,0.0
1728658465950.0,0.0,0.0,0.0
1728658466000.0,0.0,0.0,0.0
1728658466050.0,0.0,0.0,0.0
1728658466100.0,0.0,0.0,0.0
1728658466150.0,0.0,0.0,0.0
1728658466200.0,0.0,0.0,0.0
1728658466250.0,0.0,0.0,0.0
1728658466300.0,0.0,0.0,0.0
1728658466350.0,0.0,0.0,0.0
1728658466400.0,0.0,0.0,0.0
1728658466450.0,0.0,0.0,0.0
1728658466500.0,0.0,0.0,0.0
1728658466550.0,0.0,0.0,0.0
1728658466600.0,0.0,0.0,0.0
1728658466650.0,0.0,0.0,0.0
1728658466700.0,0.0,0.0,0.0
1728658466750.0,0.0,0.0,0.0
1728658466800.0,0.0,0.0,0.0
1728658466850.0,0.0,0.0,0.0
1728658466900.0,0.0,0.0,0.0
1728658466950.0,0.0,0.0,0.0
1728658467000.0,0.0,0.0,0.0
1728658467050.0,0.0,0.0,0.0
1728658467100.0,0.0,0.0,0.0
1728658467150.0,0.0,0.0,0.0
1728658467200.0,0.0,0.0,0.0
1728658467250.0,0.0,0.0,0.0
1728658467300.0,0.0,0.0,0.0
1728658467350.0,0.0,0.0,0.0
1728658467400.0,0.0,0.0,0.0
1728658467450.0,0.0,0.0,0.0
1728658467500.0,0.0,0.0,0.0
1728658467550.0,0.0,0.0,0.0
1728658467600.0,0.0,0.0,0.0
1728658467650.0,0.0,0.0,0.0
1728658467700.0,0.0,0.0,0.0
1728658467750.0,0.0,0.0,0.0
1728658467800.0,0.0,0.0,0.0
1728658467850.0,0.0,0.0,0.0
1728658467900.0,0.0,0.0,0.0
1728658467950.0,0.0,0.0,0.0
1728658468000.0,0.0,0.0,0.0
1728658468050.0,0.0,0.0,0.0
1728658468100.0,0.0,0.0,0.0
1728658468150.0,0.0,0.0,0.0
1728658468200.0,0.0,0.0,0.0
1728658468250.0,0.0,0.0,0.0
1728658468300.0,0.0,0.0,0.0
1728658468350.0,0.0,0.0,0.0
1728658468400.0,0.0,0.0,0.0
1728658468450.0,0.0,0.0,0.0
1728658468500.0,0.0,0.0,0.0
1728658468550.0,0.0,0.0,0.0
1728658468600.0,0.0,0.0,0.0
1728658468650.0,0.0,0.0,0.0
1728658468700.0,0.0,0.0,0.0
1728658468750.0,0.0,0.0,0.0
1728658468800.0,0.0,0.0,0.0
1728658468850.0,0.0,0.0,0.0
1728658468900.0,0.0,0.0,0.0
1728658468950.0,0.0,0.0,0.0
1728658469000.0,0.0,0.0,0.0
1728658469050.0,0.0,0.0,0.0
1728658469100.0,0.0,0.0,0.0
1728658469150.0,0.0,0.0,0.0
1728658469200.0,0.0,0.0,0.0
1728658469250.0,0.0,0.0,0.0
1728658469300.0,0.0,0.0,0.0
1728658469350.0,0.0,0.0,0.0
1728658469400.0,0.0,0.0,0.0
1728658469450.0,0.0,0.0,0.0
1728658469500.0,0.0,0.0,0.0
1728658469550.0,0.0,0.0,0.0
1728658469600.0,0.0,0.0,0.0
1728658469650.0,0.0,0.0,0.0
1728658469700.0,0.0,0.0,0.0
1728658469750.0,0.0,0.0,0.0
1728658469800.0,0.0,0.0,0.0
1728658469850.0,0.0,0.0,0.0
1728658469900.0,0.0,0.0,0.0
1728658469950.0,0.0,0.0,0.0
1728658470000.0,0.0,0.0,0.0
1728658470050.0,0.0,0.0,0.0
1728658470100.0,0.0,0.0,0.0
1728658470150.0,0.0,0.0,0.0
1728658470200.0,0.0,0.0,0.0
1728658470250.0,0.0,0.0,0.0
1728658470300.0,0.0,0.0,0.0
1728658470350.0,0.0,0.0,0.0
1728658470400.0,0.0,0.0,0.0
1728658470450.0,0.0,0.0,0.0
1728658470500.0,0.0,0.0,0.0
1728658470550.0,0.0,0.0,0.0
1728658470600.0,0.0,0.0,0.0
