"time_trame";"num_sv";"hdop";"error_gps";"bpm";"error_cardio";"is_in_charge";"battery";"latitude_1";"latitude_2";"latitude_3";"latitude_4";"latitude_5";"latitude_6";"latitude_7";"latitude_8";"latitude_9";"latitude_10";"longitude_1";"longitude_2";"longitude_3";"longitude_4";"longitude_5";"longitude_6";"longitude_7";"longitude_8";"longitude_9";"longitude_10";"speed_1";"speed_2";"speed_3";"speed_4";"speed_5";"speed_6";"speed_7";"speed_8";"speed_9";"speed_10";"acc_x_1";"acc_y_1";"acc_z_1";"acc_x_2";"acc_y_2";"acc_z_2";"acc_x_3";"acc_y_3";"acc_z_3";"acc_x_4";"acc_y_4";"acc_z_4";"acc_x_5";"acc_y_5";"acc_z_5";"acc_x_6";"acc_y_6";"acc_z_6";"acc_x_7";"acc_y_7";"acc_z_7";"acc_x_8";"acc_y_8";"acc_z_8";"acc_x_9";"acc_y_9";"acc_z_9";"acc_x_10";"acc_y_10";"acc_z_10";"acc_x_11";"acc_y_11";"acc_z_11";"acc_x_12";"acc_y_12";"acc_z_12";"acc_x_13";"acc_y_13";"acc_z_13";"acc_x_14";"acc_y_14";"acc_z_14";"acc_x_15";"acc_y_15";"acc_z_15";"acc_x_16";"acc_y_16";"acc_z_16";"acc_x_17";"acc_y_17";"acc_z_17";"acc_x_18";"acc_y_18";"acc_z_18";"acc_x_19";"acc_y_19";"acc_z_19";"acc_x_20";"acc_y_20";"acc_z_20";"acc_x_21";"acc_y_21";"acc_z_21";"acc_x_22";"acc_y_22";"acc_z_22";"acc_x_23";"acc_y_23";"acc_z_23";"acc_x_24";"acc_y_24";"acc_z_24";"acc_x_25";"acc_y_25";"acc_z_25";"acc_x_26";"acc_y_26";"acc_z_26";"acc_x_27";"acc_y_27";"acc_z_27";"acc_x_28";"acc_y_28";"acc_z_28";"acc_x_29";"acc_y_29";"acc_z_29";"acc_x_30";"acc_y_30";"acc_z_30";"acc_x_31";"acc_y_31";"acc_z_31";"acc_x_32";"acc_y_32";"acc_z_32";"acc_x_33";"acc_y_33";"acc_z_33";"acc_x_34";"acc_y_34";"acc_z_34";"acc_x_35";"acc_y_35";"acc_z_35";"acc_x_36";"acc_y_36";"acc_z_36";"acc_x_37";"acc_y_37";"acc_z_37";"acc_x_38";"acc_y_38";"acc_z_38";"acc_x_39";"acc_y_39";"acc_z_39";"acc_x_40";"acc_y_40";"acc_z_40";"acc_x_41";"acc_y_41";"acc_z_41";"acc_x_42";"acc_y_42";"acc_z_42";"acc_x_43";"acc_y_43";"acc_z_43";"acc_x_44";"acc_y_44";"acc_z_44";"acc_x_45";"acc_y_45";"acc_z_45";"acc_x_46";"acc_y_46";"acc_z_46";"acc_x_47";"acc_y_47";"acc_z_47";"acc_x_48";"acc_y_48";"acc_z_48";"acc_x_49";"acc_y_49";"acc_z_49";"acc_x_50";"acc_y_50";"acc_z_50";"acc_x_51";"acc_y_51";"acc_z_51";"acc_x_52";"acc_y_52";"acc_z_52";"acc_x_53";"acc_y_53";"acc_z_53";"acc_x_54";"acc_y_54";"acc_z_54";"acc_x_55";"acc_y_55";"acc_z_55";"acc_x_56";"acc_y_56";"acc_z_56";"acc_x_57";"acc_y_57";"acc_z_57";"acc_x_58";"acc_y_58";"acc_z_58";"acc_x_59";"acc_y_59";"acc_z_59";"acc_x_60";"acc_y_60";"acc_z_60";"acc_x_61";"acc_y_61";"acc_z_61";"acc_x_62";"acc_y_62";"acc_z_62";"acc_x_63";"acc_y_63";"acc_z_63";"acc_x_64";"acc_y_64";"acc_z_64";"acc_x_65";"acc_y_65";"acc_z_65";"acc_x_66";"acc_y_66";"acc_z_66";"acc_x_67";"acc_y_67";"acc_z_67";"acc_x_68";"acc_y_68";"acc_z_68";"acc_x_69";"acc_y_69";"acc_z_69";"acc_x_70";"acc_y_70";"acc_z_70";"acc_x_71";"acc_y_71";"acc_z_71";"acc_x_72";"acc_y_72";"acc_z_72";"acc_x_73";"acc_y_73";"acc_z_73";"acc_x_74";"acc_y_74";"acc_z_74";"acc_x_75";"acc_y_75";"acc_z_75";"acc_x_76";"acc_y_76";"acc_z_76";"acc_x_77";"acc_y_77";"acc_z_77";"acc_x_78";"acc_y_78";"acc_z_78";"acc_x_79";"acc_y_79";"acc_z_79";"acc_x_80";"acc_y_80";"acc_z_80";"gyro_x_1";"gyro_y_1";"gyro_z_1";"gyro_x_2";"gyro_y_2";"gyro_z_2";"gyro_x_3";"gyro_y_3";"gyro_z_3";"gyro_x_4";"gyro_y_4";"gyro_z_4";"gyro_x_5";"gyro_y_5";"gyro_z_5";"gyro_x_6";"gyro_y_6";"gyro_z_6";"gyro_x_7";"gyro_y_7";"gyro_z_7";"gyro_x_8";"gyro_y_8";"gyro_z_8";"gyro_x_9";"gyro_y_9";"gyro_z_9";"gyro_x_10";"gyro_y_10";"gyro_z_10";"gyro_x_11";"gyro_y_11";"gyro_z_11";"gyro_x_12";"gyro_y_12";"gyro_z_12";"gyro_x_13";"gyro_y_13";"gyro_z_13";"gyro_x_14";"gyro_y_14";"gyro_z_14";"gyro_x_15";"gyro_y_15";"gyro_z_15";"gyro_x_16";"gyro_y_16";"gyro_z_16";"gyro_x_17";"gyro_y_17";"gyro_z_17";"gyro_x_18";"gyro_y_18";"gyro_z_18";"gyro_x_19";"gyro_y_19";"gyro_z_19";"gyro_x_20";"gyro_y_20";"gyro_z_20";"mag_x_1";"mag_y_1";"mag_z_1";"mag_x_2";"mag_y_2";"mag_z_2";"mag_x_3";"mag_y_3";"mag_z_3";"mag_x_4";"mag_y_4";"mag_z_4";"mag_x_5";"mag_y_5";"mag_z_5";"mag_x_6";"mag_y_6";"mag_z_6";"mag_x_7";"mag_y_7";"mag_z_7";"mag_x_8";"mag_y_8";"mag_z_8";"mag_x_9";"mag_y_9";"mag_z_9";"mag_x_10";"mag_y_10";"mag_z_10";"mag_x_11";"mag_y_11";"mag_z_11";"mag_x_12";"mag_y_12";"mag_z_12";"mag_x_13";"mag_y_13";"mag_z_13";"mag_x_14";"mag_y_14";"mag_z_14";"mag_x_15";"mag_y_15";"mag_z_15";"mag_x_16";"mag_y_16";"mag_z_16";"mag_x_17";"mag_y_17";"mag_z_17";"mag_x_18";"mag_y_18";"mag_z_18";"mag_x_19";"mag_y_19";"mag_z_19";"mag_x_20";"mag_y_20";"mag_z_20"
1728658339000;0;25.4;0;255;255;false;73;0.0;0.0;0.0;0.0;0.0;0.0;0.0;0.0;0.0;0.0;0.0;0.0;0.0;0.0;0.0;0.0;0.0;0.0;0.0;0.0;0.0;0.0;0.0;0.0;0.0;0.0;0.0;0.0;0.0;0.0;0.93696;0.0;-0.374784;0.93696;-0.187392;-0.562176;0.93696;-0.187392;-0.374784;0.93696;-0.187392;-0.374784;0.93696;0.0;-0.562176;0.93696;0.0;-0.562176;0.93696;0.0;-0.374784;0.93696;0.0;-0.374784;0.93696;0.0;-0.374784;0.749568;0.0;-0.562176;0.93696;0.0;-0.374784;0.93696;0.0;-0.562176;0.93696;0.0;-0.374784;0.93696;0.0;-0.374784;0.93696;0.0;-0.374784;0.93696;0.0;-0.374784;0.93696;0.0;-0.562176;0.93696;0.0;-0.562176;0.93696;0.0;-0.374784;0.93696;0.0;-0.374784;0.93696;0.0;-0.374784;0.93696;0.0;-0.562176;0.93696;0.0;-0.374784;0.93696;0.0;-0.562176;0.93696;0.0;-0.562176;0.93696;0.0;-0.562176;0.93696;0.0;-0.562176;0.93696;0.0;-0.562176;0.93696;0.0;-0.374784;0.93696;0.0;-0.374784;0.93696;0.0;-0.562176;0.93696;0.0;-0.562176;0.93696;0.0;-0.562176;0.93696;0.0;-0.562176;0.93696;0.0;-0.562176;0.93696;0.0;-0.562176;0.93696;0.0;-0.374784;0.93696;0.0;-0.374784;0.93696;0.0;-0.374784;0.93696;0.0;-0.374784;0.93696;0.0;-0.374784;0.93696;0.0;-0.562176;0.93696;0.0;-0.562176;0.93696;0.0;-0.562176;0.93696;0.0;-0.562176;0.93696;0.0;-0.374784;0.93696;0.0;-0.374784;0.93696;0.0;-0.562176;0.93696;0.0;-0.562176;0.93696;0.0;-0.562176;0.93696;0.0;-0.562176;0.93696;0.0;-0.562176;0.93696;0.0;-0.562176;0.93696;0.0;-0.562176;0.93696;0.0;-0.562176;0.93696;0.0;-0.562176;0.93696;0.0;-0.562176;0.93696;0.0;-0.562176;0.93696;0.0;-0.562176;0.93696;0.0;-0.562176;0.93696;0.0;-0.562176;0.93696;0.0;-0.374784;0.749568;0.0;-0.374784;0.93696;0.0;-0.374784;0.93696;0.0;-0.562176;0.93696;0.0;-0.562176;0.93696;0.0;-0.562176;0.93696;0.0;-0.562176;0.93696;0.0;-0.374784;0.93696;0.0;-0.374784;0.93696;0.0;-0.562176;0.93696;-0.187392;-0.562176;0.93696;-0.187392;-0.562176;0.749568;-0.187392;-0.562176;0.749568;-0.187392;-0.562176;0.749568;-0.187392;-0.562176;0.749568;0.0;-0.562176;0.562176;0.0;-0.562176;0.93696;0.0;-0.562176;1.124352;-0.187392;-0.562176;-17.92;17.92;0.0;0.0;17.92;0.0;0.0;17.92;0.0;0.0;17.92;0.0;0.0;0.0;0.0;0.0;0.0;0.0;0.0;0.0;0.0;0.0;0.0;0.0;0.0;0.0;0.0;0.0;0.0;0.0;0.0;0.0;0.0;-17.92;0.0;0.0;0.0;0.0;0.0;0.0;0.0;0.0;0.0;0.0;0.0;0.0;17.92;0.0;-35.84;0.0;0.0;-17.92;17.92;0.0;-17.92;17.92;-17.92;0.0;0.0;0.0;3.26656;2.52416;1.93024;3.26656;2.52416;1.93024;3.26656;2.37568;1.93024;3.26656;2.52416;1.93024;3.26656;2.52416;2.07872;3.26656;2.37568;2.07872;3.26656;2.37568;2.07872;3.26656;2.37568;2.07872;3.26656;2.37568;2.07872;3.26656;2.37568;2.07872;3.26656;2.37568;2.07872;3.26656;2.52416;1.93024;3.26656;2.52416;2.07872;3.26656;2.37568;2.07872;3.26656;2.37568;2.07872;3.26656;2.37568;2.07872;3.26656;2.52416;1.93024;3.11808;2.52416;1.93024;3.11808;2.52416;2.07872;3.11808;2.52416;1.93024
1728658340000;0;25.4;0;255;255;false;73;0.0;0.0;0.0;0.0;0.0;0.0;0.0;0.0;0.0;0.0;0.0;0.0;0.0;0.0;0.0;0.0;0.0;0.0;0.0;0.0;0.0;0.0;0.0;0.0;0.0;0.0;0.0;0.0;0.0;0.0;0.93696;-0.187392;-0.562176;0.93696;-0.187392;-0.562176;0.93696;0.0;-0.562176;0.749568;0.0;-0.562176;0.749568;-0.187392;-0.562176;0.93696;0.0;-0.562176;0.93696;-0.187392;-0.562176;0.93696;0.0;-0.562176;0.93696;0.0;-0.562176;0.93696;0.0;-0.562176;0.749568;-0.187392;-0.562176;0.749568;0.0;-0.562176;0.749568;0.0;-0.562176;0.93696;0.0;-0.562176;0.93696;0.0;-0.562176;0.93696;0.0;-0.562176;0.93696;0.0;-0.562176;0.93696;0.0;-0.562176;0.93696;0.0;-0.562176;0.93696;0.0;-0.562176;0.93696;0.0;-0.562176;0.93696;0.0;-0.562176;0.93696;-0.187392;-0.562176;0.93696;-0.187392;-0.562176;0.93696;-0.187392;-0.562176;0.93696;-0.187392;-0.562176;0.749568;-0.187392;-0.562176;0.749568;0.0;-0.562176;0.749568;0.0;-0.562176;0.93696;0.0;-0.562176;0.93696;0.0;-0.562176;0.93696;0.0;-0.562176;0.93696;0.0;-0.562176;0.93696;0.0;-0.562176;0.93696;0.0;-0.562176;0.93696;0.0;-0.562176;0.93696;0.0;-0.562176;0.93696;-0.187392;-0.562176;0.93696;0.0;-0.562176;0.93696;0.0;-0.562176;0.93696;0.0;-0.374784;0.93696;0.0;-0.562176;0.93696;0.0;-0.562176;0.93696;0.0;-0.562176;0.93696;0.0;-0.562176;0.93696;-0.187392;-0.562176;0.93696;0.0;-0.562176;0.93696;0.0;-0.562176;0.93696;0.0;-0.562176;0.93696;0.0;-0.374784;0.93696;0.0;-0.562176;0.93696;0.0;-0.562176;0.93696;0.0;-0.562176;0.93696;0.0;-0.562176;0.93696;0.0;-0.562176;0.93696;0.0;-0.562176;0.93696;0.0;-0.562176;0.93696;0.0;-0.374784;0.93696;0.0;-0.562176;0.93696;0.0;-0.562176;0.93696;0.0;-0.374784;0.93696;0.0;-0.374784;0.93696;0.0;-0.374784;0.93696;0.0;-0.562176;0.93696;0.0;-0.562176;0.93696;0.0;-0.374784;0.93696;0.0;-0.374784;0.93696;0.0;-0.374784;0.93696;0.0;-0.374784;0.93696;0.0;-0.562176;0.93696;0.0;-0.562176;0.93696;0.0;-0.374784;0.93696;0.0;-0.374784;0.93696;0.0;-0.374784;0.93696;0.0;-0.374784;0.93696;0.0;-0.374784;0.93696;0.0;-0.374784;0.93696;0.0;-0.374784;0.93696;0.0;-0.374784;0.93696;0.0;-0.374784;0.0;17.92;0.0;0.0;0.0;0.0;17.92;0.0;0.0;0.0;0.0;0.0;0.0;0.0;0.0;0.0;0.0;0.0;0.0;0.0;0.0;0.0;0.0;0.0;0.0;0.0;0.0;0.0;0.0;0.0;0.0;0.0;0.0;0.0;0.0;0.0;0.0;0.0;0.0;0.0;0.0;0.0;0.0;0.0;0.0;0.0;0.0;0.0;0.0;0.0;0.0;0.0;0.0;0.0;0.0;0.0;0.0;0.0;0.0;0.0;3.11808;2.52416;2.07872;3.11808;2.52416;1.93024;3.11808;2.52416;2.07872;3.11808;2.52416;1.93024;3.11808;2.52416;2.07872;3.11808;2.52416;2.07872;3.11808;2.52416;1.93024;3.11808;2.52416;2.07872;3.11808;2.52416;2.07872;3.11808;2.52416;1.93024;3.11808;2.52416;2.07872;3.26656;2.52416;2.07872;3.11808;2.52416;2.07872;3.11808;2.52416;1.93024;3.11808;2.52416;1.93024;3.11808;2.52416;1.93024;3.26656;2.52416;1.93024;3.26656;2.52416;1.93024;3.26656;2.52416;1.93024;3.26656;2.52416;1.93024
1728658341000;0;25.4;0;255;255;false;73;0.0;0.0;0.0;0.0;0.0;0.0;0.0;0.0;0.0;0.0;0.0;0.0;0.0;0.0;0.0;0.0;0.0;0.0;0.0;0.0;0.0;0.0;0.0;0.0;0.0;0.0;0.0;0.0;0.0;0.0;0.93696;0.0;-0.374784;0.93696;0.0;-0.374784;0.93696;0.0;-0.374784;0.93696;0.0;-0.374784;0.93696;0.0;-0.374784;0.93696;0.0;-0.374784;0.93696;0.0;-0.374784;0.93696;0.0;-0.374784;0.93696;0.0;-0.374784;0.93696;0.0;-0.374784;0.93696;0.0;-0.374784;0.93696;0.0;-0.374784;0.93696;0.0;-0.374784;0.93696;0.0;-0.562176;0.93696;0.0;-0.374784;0.93696;-0.187392;-0.374784;0.93696;0.0;-0.374784;0.93696;0.0;-0.374784;0.93696;0.0;-0.374784;0.93696;0.0;-0.374784;0.93696;0.0;-0.374784;0.93696;0.0;-0.374784;0.93696;0.0;-0.374784;0.93696;0.0;-0.374784;0.93696;0.0;-0.374784;0.93696;0.0;-0.374784;0.93696;0.0;-0.374784;0.93696;0.0;-0.374784;0.93696;0.0;-0.374784;0.93696;0.0;-0.374784;0.93696;0.0;-0.374784;0.93696;0.0;-0.374784;0.93696;0.0;-0.374784;0.93696;0.0;-0.374784;0.93696;0.0;-0.374784;0.93696;0.0;-0.374784;0.93696;0.0;-0.374784;0.93696;0.0;-0.374784;0.93696;0.0;-0.374784;0.93696;0.0;-0.374784;0.93696;0.0;-0.374784;0.93696;0.0;-0.374784;0.93696;0.0;-0.374784;0.93696;0.0;-0.374784;0.93696;0.0;-0.374784;0.93696;0.0;-0.374784;0.93696;0.0;-0.374784;0.93696;0.0;-0.374784;0.93696;0.0;-0.374784;0.93696;0.0;-0.374784;0.93696;0.0;-0.374784;0.93696;0.0;-0.374784;0.93696;0.0;-0.374784;0.93696;0.0;-0.374784;0.93696;0.0;-0.562176;0.93696;0.0;-0.562176;0.93696;0.0;-0.562176;0.93696;0.0;-0.374784;0.93696;0.0;-0.562176;0.93696;0.0;-0.562176;0.93696;0.0;-0.562176;0.93696;0.0;-0.562176;0.93696;0.0;-0.562176;0.93696;0.0;-0.562176;0.93696;0.0;-0.374784;0.93696;0.0;-0.374784;0.93696;0.0;-0.562176;0.93696;0.0;-0.562176;0.93696;0.0;-0.562176;0.93696;0.0;-0.562176;0.93696;-0.187392;-0.562176;0.93696;-0.187392;-0.562176;0.93696;0.0;-0.562176;0.93696;0.0;-0.562176;0.93696;0.0;-0.562176;0.93696;0.0;-0.562176;0.93696;0.0;-0.562176;0.93696;0.0;-0.562176;0.93696;0.0;-0.562176;0.93696;0.0;-0.562176;0.0;0.0;0.0;17.92;0.0;0.0;17.92;0.0;0.0;0.0;0.0;0.0;17.92;0.0;0.0;0.0;0.0;0.0;0.0;0.0;0.0;0.0;0.0;0.0;0.0;0.0;0.0;0.0;0.0;0.0;0.0;0.0;0.0;0.0;0.0;0.0;0.0;0.0;0.0;0.0;0.0;0.0;0.0;0.0;0.0;0.0;0.0;0.0;0.0;0.0;0.0;17.92;0.0;0.0;17.92;0.0;0.0;17.92;0.0;0.0;3.26656;2.52416;1.93024;3.26656;2.52416;1.93024;3.26656;2.52416;1.93024;3.26656;2.52416;2.07872;3.26656;2.37568;1.93024;3.26656;2.52416;2.07872;3.26656;2.37568;2.07872;3.26656;2.37568;1.93024;3.26656;2.37568;1.93024;3.26656;2.37568;2.07872;3.26656;2.37568;1.93024;3.26656;2.37568;1.93024;3.26656;2.37568;2.07872;3.26656;2.37568;2.07872;3.11808;2.52416;1.93024;3.11808;2.52416;2.07872;3.26656;2.52416;2.07872;3.26656;2.52416;2.07872;3.26656;2.52416;2.07872;3.26656;2.52416;2.07872
1728658342000;0;25.4;0;255;255;false;73;0.0;0.0;0.0;0.0;0.0;0.0;0.0;0.0;0.0;0.0;0.0;0.0;0.0;0.0;0.0;0.0;0.0;0.0;0.0;0.0;0.0;0.0;0.0;0.0;0.0;0.0;0.0;0.0;0.0;0.0;0.93696;0.0;-0.562176;0.93696;0.0;-0.374784;0.93696;0.0;-0.374784;0.93696;0.0;-0.562176;0.93696;0.0;-0.562176;0.93696;0.0;-0.374784;0.93696;0.0;-0.562176;0.93696;0.0;-0.562176;0.93696;0.0;-0.374784;0.93696;0.0;-0.374784;0.93696;0.0;-0.374784;0.93696;0.0;-0.374784;0.93696;0.0;-0.374784;0.93696;0.0;-0.374784;0.93696;0.0;-0.374784;0.749568;0.0;-0.374784;0.93696;0.0;-0.374784;0.93696;0.0;-0.374784;0.93696;0.0;-0.374784;0.93696;0.0;-0.374784;0.93696;0.0;-0.374784;0.93696;0.0;-0.374784;0.93696;0.0;-0.374784;0.93696;0.0;-0.374784;0.93696;0.0;-0.374784;0.93696;0.0;-0.374784;0.93696;0.0;-0.374784;0.93696;0.0;-0.374784;0.93696;0.0;-0.374784;0.93696;0.0;-0.374784;0.93696;0.0;-0.374784;0.93696;0.0;-0.374784;0.93696;0.0;-0.374784;0.93696;0.0;-0.374784;0.93696;0.0;-0.374784;0.93696;0.0;-0.374784;0.93696;0.0;-0.374784;0.93696;0.0;-0.374784;0.93696;0.0;-0.374784;0.93696;0.0;-0.374784;0.93696;0.0;-0.374784;0.93696;0.0;-0.374784;0.93696;0.0;-0.374784;0.93696;0.0;-0.374784;0.93696;0.0;-0.374784;0.93696;0.0;-0.374784;0.93696;0.0;-0.374784;0.93696;0.0;-0.374784;0.93696;0.0;-0.374784;0.93696;0.0;-0.374784;0.93696;0.0;-0.374784;0.93696;0.0;-0.374784;0.93696;0.0;-0.374784;0.93696;0.0;-0.374784;0.93696;0.0;-0.374784;0.93696;0.0;-0.374784;0.93696;0.0;-0.374784;0.93696;0.0;-0.374784;0.93696;0.0;-0.374784;0.93696;0.0;-0.374784;0.93696;0.0;-0.374784;0.93696;0.0;-0.374784;0.93696;0.0;-0.374784;0.93696;0.0;-0.374784;0.93696;0.0;-0.374784;0.93696;0.0;-0.374784;0.93696;0.0;-0.374784;0.93696;0.0;-0.374784;0.93696;0.0;-0.374784;0.93696;0.0;-0.374784;0.93696;0.0;-0.374784;0.93696;0.0;-0.374784;0.93696;0.0;-0.374784;0.93696;0.0;-0.374784;0.93696;0.0;-0.374784;0.93696;0.0;-0.374784;0.93696;0.0;-0.374784;0.93696;0.0;-0.374784;0.93696;0.0;-0.374784;0.93696;0.0;-0.374784;17.92;0.0;0.0;0.0;0.0;0.0;0.0;0.0;0.0;-17.92;0.0;0.0;-17.92;0.0;0.0;-17.92;0.0;0.0;0.0;0.0;0.0;-17.92;0.0;0.0;-17.92;0.0;0.0;0.0;0.0;0.0;0.0;0.0;0.0;17.92;0.0;0.0;0.0;0.0;0.0;0.0;0.0;-17.92;0.0;0.0;0.0;0.0;0.0;0.0;0.0;0.0;0.0;-17.92;0.0;0.0;-17.92;0.0;0.0;-17.92;0.0;0.0;3.26656;2.37568;2.07872;3.11808;2.37568;2.07872;3.11808;2.37568;2.07872;3.11808;2.37568;2.07872;3.11808;2.52416;2.07872;3.26656;2.52416;2.07872;3.26656;2.52416;2.07872;3.26656;2.52416;2.07872;3.26656;2.52416;2.07872;3.26656;2.52416;1.93024;3.26656;2.52416;1.93024;3.26656;2.52416;1.93024;3.26656;2.37568;1.93024;3.26656;2.37568;1.93024;3.26656;2.37568;2.07872;3.26656;2.52416;1.93024;3.26656;2.52416;1.93024;3.26656;2.52416;2.07872;3.26656;2.52416;2.07872;3.26656;2.52416;1.93024
1728658343000;0;25.4;0;255;255;false;73;0.0;0.0;0.0;0.0;0.0;0.0;0.0;0.0;0.0;0.0;0.0;0.0;0.0;0.0;0.0;0.0;0.0;0.0;0.0;0.0;0.0;0.0;0.0;0.0;0.0;0.0;0.0;0.0;0.0;0.0;0.93696;0.0;-0.374784;0.93696;0.0;-0.374784;0.93696;0.0;-0.374784;0.93696;0.0;-0.374784;0.93696;0.0;-0.374784;0.93696;0.0;-0.374784;0.93696;0.0;-0.374784;0.93696;0.0;-0.374784;0.93696;0.0;-0.374784;0.93696;0.0;-0.374784;0.93696;0.0;-0.374784;0.93696;0.0;-0.374784;0.93696;0.0;-0.374784;0.93696;0.0;-0.374784;0.93696;0.0;-0.374784;0.93696;0.0;-0.374784;0.93696;0.0;-0.374784;0.93696;0.0;-0.374784;0.93696;0.0;-0.374784;0.93696;0.0;-0.374784;0.93696;0.0;-0.374784;0.93696;0.0;-0.374784;0.93696;0.0;-0.374784;0.93696;0.0;-0.374784;0.93696;0.0;-0.374784;0.93696;0.0;-0.374784;0.93696;0.0;-0.374784;0.93696;0.0;-0.374784;0.93696;0.0;-0.374784;0.93696;0.0;-0.374784;0.93696;0.0;-0.374784;0.93696;0.0;-0.374784;0.93696;0.0;-0.374784;0.93696;0.0;-0.374784;0.93696;0.0;-0.374784;0.93696;0.0;-0.374784;0.93696;0.0;-0.374784;0.93696;0.0;-0.374784;0.93696;0.0;-0.374784;0.93696;0.0;-0.374784;0.93696;0.0;-0.374784;0.93696;0.0;-0.374784;0.93696;0.0;-0.374784;0.93696;0.0;-0.374784;0.93696;0.0;-0.374784;0.93696;0.0;-0.374784;0.93696;0.0;-0.374784;0.93696;0.0;-0.374784;0.93696;0.0;-0.374784;0.93696;0.0;-0.374784;0.93696;0.0;-0.374784;0.93696;0.0;-0.374784;0.93696;0.0;-0.374784;0.93696;0.0;-0.374784;0.93696;0.0;-0.374784;0.93696;0.0;-0.374784;0.93696;0.0;-0.374784;0.93696;0.0;-0.374784;0.93696;0.0;-0.374784;0.93696;0.0;-0.374784;0.93696;0.0;-0.374784;0.93696;0.0;-0.374784;0.93696;0.0;-0.374784;0.93696;0.0;-0.374784;0.93696;0.0;-0.374784;0.93696;0.0;-0.374784;0.93696;0.0;-0.374784;0.93696;0.0;-0.374784;0.93696;0.0;-0.374784;0.93696;0.0;-0.374784;0.93696;0.0;-0.374784;0.93696;0.0;-0.374784;0.93696;0.0;-0.374784;0.93696;0.0;-0.374784;0.93696;0.0;-0.374784;0.93696;0.0;-0.374784;0.93696;0.0;-0.374784;0.93696;0.0;-0.374784;0.93696;-0.187392;-0.374784;0.93696;-0.187392;-0.374784;-17.92;0.0;0.0;-17.92;0.0;0.0;0.0;0.0;0.0;0.0;0.0;0.0;0.0;0.0;0.0;0.0;0.0;0.0;0.0;0.0;0.0;0.0;0.0;0.0;0.0;0.0;0.0;0.0;0.0;0.0;0.0;0.0;0.0;0.0;0.0;0.0;0.0;0.0;0.0;0.0;0.0;0.0;0.0;0.0;0.0;0.0;0.0;0.0;0.0;0.0;0.0;0.0;0.0;0.0;0.0;0.0;0.0;0.0;0.0;0.0;3.26656;2.52416;1.93024;3.26656;2.52416;1.93024;3.26656;2.52416;1.93024;3.26656;2.52416;1.93024;3.26656;2.52416;1.93024;3.26656;2.52416;1.93024;3.26656;2.52416;1.93024;3.26656;2.52416;1.93024;3.26656;2.52416;1.78176;3.26656;2.52416;1.93024;3.26656;2.52416;1.93024;3.26656;2.52416;1.78176;3.26656;2.52416;1.93024;3.26656;2.52416;1.93024;3.26656;2.52416;1.78176;3.26656;2.52416;1.78176;3.26656;2.52416;1.78176;3.26656;2.52416;1.93024;3.26656;2.52416;1.78176;3.26656;2.52416;1.93024
1728658344000;0;25.4;0;255;255;false;73;0.0;0.0;0.0;0.0;0.0;0.0;0.0;0.0;0.0;0.0;0.0;0.0;0.0;0.0;0.0;0.0;0.0;0.0;0.0;0.0;0.0;0.0;0.0;0.0;0.0;0.0;0.0;0.0;0.0;0.0;0.93696;-0.187392;-0.374784;0.93696;-0.187392;-0.374784;0.93696;-0.187392;-0.374784;0.93696;-0.187392;-0.374784;0.93696;-0.187392;-0.374784;0.93696;0.0;-0.374784;0.93696;0.0;-0.374784;0.93696;-0.187392;-0.374784;0.93696;0.0;-0.374784;0.93696;0.0;-0.374784;0.93696;-0.187392;-0.374784;0.93696;0.0;-0.374784;0.93696;-0.187392;-0.374784;0.93696;-0.187392;-0.374784;0.93696;-0.187392;-0.374784;0.93696;0.0;-0.374784;0.93696;0.0;-0.374784;0.93696;0.0;-0.374784;0.93696;0.0;-0.374784;0.93696;0.0;-0.374784;0.93696;-0.187392;-0.374784;0.93696;0.0;-0.374784;0.93696;0.0;-0.374784;0.93696;0.0;-0.374784;0.93696;0.0;-0.374784;0.93696;0.0;-0.374784;0.93696;0.0;-0.374784;0.93696;0.0;-0.374784;0.93696;0.0;-0.374784;0.93696;0.0;-0.374784;0.93696;0.0;-0.374784;0.93696;0.0;-0.374784;0.93696;0.0;-0.374784;0.93696;-0.187392;-0.374784;0.93696;0.0;-0.374784;0.93696;0.0;-0.374784;0.93696;0.0;-0.374784;0.93696;0.0;-0.374784;0.93696;0.0;-0.374784;0.93696;0.0;-0.374784;0.93696;0.0;-0.374784;0.93696;0.0;-0.374784;0.93696;0.0;-0.374784;0.93696;0.0;-0.374784;0.93696;0.0;-0.374784;0.93696;0.0;-0.374784;0.93696;0.0;-0.374784;0.93696;0.0;-0.374784;0.93696;0.0;-0.374784;0.93696;0.0;-0.374784;0.93696;0.0;-0.374784;0.93696;-0.187392;-0.374784;0.93696;-0.187392;-0.374784;0.93696;0.0;-0.374784;0.93696;0.0;-0.374784;0.93696;0.0;-0.374784;0.93696;0.0;-0.374784;0.93696;0.0;-0.374784;0.93696;0.0;-0.374784;0.93696;0.0;-0.374784;0.93696;0.0;-0.374784;0.93696;0.0;-0.374784;0.93696;0.0;-0.374784;0.93696;0.0;-0.374784;0.93696;0.0;-0.374784;0.93696;0.0;-0.374784;0.93696;0.0;-0.374784;0.93696;0.0;-0.374784;0.93696;0.0;-0.374784;0.93696;0.0;-0.374784;0.93696;0.0;-0.374784;0.93696;0.0;-0.374784;0.93696;0.0;-0.374784;0.93696;-0.187392;-0.374784;0.93696;0.0;-0.374784;0.93696;-0.187392;-0.374784;0.93696;0.0;-0.374784;0.93696;0.0;-0.374784;0.93696;0.0;-0.374784;0.93696;0.0;-0.374784;0.0;0.0;0.0;0.0;0.0;0.0;0.0;0.0;0.0;0.0;0.0;0.0;0.0;0.0;0.0;0.0;0.0;0.0;0.0;0.0;0.0;0.0;0.0;0.0;0.0;0.0;0.0;0.0;0.0;0.0;0.0;0.0;0.0;0.0;0.0;0.0;0.0;0.0;0.0;17.92;0.0;0.0;17.92;0.0;0.0;0.0;0.0;0.0;0.0;0.0;0.0;0.0;0.0;0.0;0.0;0.0;0.0;17.92;0.0;0.0;3.26656;2.52416;1.78176;3.26656;2.52416;1.78176;3.26656;2.52416;1.78176;3.26656;2.52416;1.78176;3.26656;2.52416;1.78176;3.26656;2.52416;1.78176;3.26656;2.52416;1.78176;3.26656;2.52416;1.78176;3.26656;2.52416;1.78176;3.26656;2.52416;1.78176;3.26656;2.52416;1.78176;3.26656;2.52416;1.78176;3.26656;2.52416;1.78176;3.26656;2.52416;1.78176;3.26656;2.52416;1.78176;3.26656;2.52416;1.93024;3.26656;2.52416;1.78176;3.26656;2.52416;1.78176;3.26656;2.52416;1.93024;3.26656;2.52416;1.78176
1728658345000;0;25.4;9;255;255;false;73;0.0;0.0;0.0;0.0;0.0;0.0;0.0;0.0;0.0;0.0;0.0;0.0;0.0;0.0;0.0;0.0;0.0;0.0;0.0;0.0;0.0;0.0;0.0;0.0;0.0;0.0;0.0;0.0;0.0;0.0;0.93696;0.0;-0.374784;0.93696;0.0;-0.374784;0.93696;0.0;-0.374784;0.93696;0.0;-0.374784;0.93696;0.0;-0.374784;0.93696;0.0;-0.374784;0.93696;0.0;-0.374784;0.93696;0.0;-0.374784;0.93696;0.0;-0.374784;0.93696;0.0;-0.374784;0.93696;0.0;-0.374784;0.93696;0.0;-0.374784;0.93696;0.0;-0.374784;0.93696;0.0;-0.374784;0.93696;0.0;-0.374784;0.93696;0.0;-0.374784;0.93696;0.0;-0.374784;0.93696;0.0;-0.374784;0.93696;0.0;-0.374784;0.93696;0.0;-0.374784;0.93696;0.0;-0.374784;0.93696;0.0;-0.374784;0.93696;0.0;-0.374784;0.93696;0.0;-0.374784;0.93696;0.0;-0.374784;0.93696;0.0;-0.374784;0.93696;0.0;-0.374784;0.93696;0.0;-0.374784;0.93696;0.0;-0.374784;0.93696;0.0;-0.374784;0.93696;0.0;-0.374784;0.93696;0.0;-0.374784;0.93696;0.0;-0.374784;0.93696;0.0;-0.374784;0.93696;0.0;-0.374784;0.93696;0.0;-0.374784;0.93696;0.0;-0.374784;0.93696;0.0;-0.374784;0.93696;0.0;-0.374784;0.93696;0.0;-0.374784;0.93696;0.0;-0.374784;0.93696;0.0;-0.374784;0.93696;0.0;-0.374784;0.93696;0.0;-0.374784;0.93696;0.0;-0.374784;0.93696;0.0;-0.374784;0.93696;0.0;-0.374784;0.93696;0.0;-0.374784;0.93696;0.0;-0.374784;0.93696;0.0;-0.374784;0.93696;0.0;-0.374784;0.93696;0.0;-0.374784;0.93696;0.0;-0.374784;0.93696;0.0;-0.374784;0.93696;0.0;-0.374784;0.93696;0.0;-0.374784;0.93696;0.0;-0.374784;0.93696;0.0;-0.374784;0.93696;0.0;-0.374784;0.93696;0.0;-0.374784;0.93696;0.0;-0.374784;0.93696;0.0;-0.374784;0.93696;0.0;-0.374784;0.93696;0.0;-0.374784;0.93696;0.0;-0.374784;0.93696;0.0;-0.374784;0.93696;0.0;-0.374784;0.93696;0.0;-0.374784;0.93696;0.0;-0.374784;0.93696;0.0;-0.374784;0.93696;0.0;-0.374784;0.93696;0.0;-0.374784;0.93696;0.0;-0.374784;0.93696;0.0;-0.374784;0.93696;0.0;-0.374784;0.93696;0.0;-0.374784;0.93696;0.0;-0.374784;0.93696;0.0;-0.374784;0.93696;0.0;-0.374784;0.93696;0.0;-0.374784;17.92;0.0;0.0;17.92;0.0;0.0;0.0;0.0;0.0;17.92;0.0;0.0;17.92;0.0;0.0;0.0;0.0;0.0;0.0;0.0;0.0;0.0;0.0;0.0;0.0;0.0;0.0;0.0;0.0;0.0;0.0;0.0;0.0;0.0;0.0;0.0;0.0;0.0;0.0;0.0;0.0;0.0;0.0;0.0;0.0;0.0;0.0;0.0;0.0;0.0;0.0;0.0;0.0;0.0;0.0;0.0;0.0;0.0;0.0;0.0;3.26656;2.52416;1.78176;3.26656;2.52416;1.93024;3.26656;2.52416;1.93024;3.26656;2.37568;1.93024;3.26656;2.37568;1.93024;3.26656;2.52416;1.93024;3.26656;2.52416;1.93024;3.26656;2.37568;1.93024;3.26656;2.52416;1.93024;3.26656;2.52416;1.93024;3.26656;2.37568;1.93024;3.26656;2.52416;1.93024;3.26656;2.52416;1.93024;3.26656;2.52416;1.93024;3.26656;2.52416;1.93024;3.26656;2.37568;1.93024;3.26656;2.37568;1.93024;3.26656;2.37568;1.93024;3.26656;2.52416;1.93024;3.26656;2.52416;1.93024
1728658346000;0;25.4;0;255;255;false;73;0.0;0.0;0.0;0.0;0.0;0.0;0.0;0.0;0.0;0.0;0.0;0.0;0.0;0.0;0.0;0.0;0.0;0.0;0.0;0.0;0.0;0.0;0.0;0.0;0.0;0.0;0.0;0.0;0.0;0.0;0.93696;0.0;-0.374784;0.93696;0.0;-0.374784;0.93696;0.0;-0.374784;0.93696;0.0;-0.374784;0.93696;0.0;-0.374784;0.93696;0.0;-0.374784;0.93696;0.0;-0.374784;0.93696;0.0;-0.374784;0.93696;0.0;-0.374784;0.93696;0.0;-0.374784;0.93696;0.0;-0.374784;0.93696;0.0;-0.374784;0.93696;0.0;-0.374784;0.93696;0.0;-0.374784;0.93696;0.0;-0.374784;0.93696;0.0;-0.374784;0.93696;0.0;-0.374784;0.93696;0.0;-0.374784;0.93696;0.0;-0.374784;0.93696;0.0;-0.374784;0.93696;0.0;-0.374784;0.93696;0.0;-0.374784;0.93696;0.0;-0.374784;0.93696;0.0;-0.374784;0.93696;0.0;-0.374784;0.93696;0.0;-0.374784;0.93696;0.0;-0.374784;0.93696;0.0;-0.374784;0.93696;0.0;-0.374784;0.93696;0.0;-0.374784;0.93696;0.0;-0.374784;0.93696;0.0;-0.374784;0.93696;0.0;-0.374784;0.93696;0.0;-0.374784;0.93696;0.0;-0.374784;0.93696;0.0;-0.374784;0.93696;0.0;-0.374784;0.93696;0.0;-0.374784;0.93696;0.0;-0.374784;0.93696;0.0;-0.374784;0.93696;0.0;-0.374784;0.93696;0.0;-0.374784;0.93696;0.0;-0.374784;0.93696;0.0;-0.374784;0.93696;0.0;-0.374784;0.93696;0.0;-0.374784;0.93696;0.0;-0.374784;0.93696;0.0;-0.374784;0.93696;0.0;-0.374784;0.93696;0.0;-0.374784;0.93696;0.0;-0.374784;0.93696;0.0;-0.374784;0.93696;0.0;-0.374784;0.93696;0.0;-0.374784;0.93696;0.0;-0.374784;0.93696;0.0;-0.374784;0.93696;0.0;-0.374784;0.93696;0.0;-0.374784;0.93696;0.0;-0.374784;0.93696;0.0;-0.374784;0.93696;0.0;-0.374784;0.93696;0.0;-0.374784;0.93696;0.0;-0.374784;0.93696;0.0;-0.374784;0.93696;0.0;-0.374784;0.93696;0.0;-0.374784;0.93696;0.0;-0.374784;0.93696;0.0;-0.374784;0.93696;0.0;-0.374784;0.93696;0.0;-0.374784;0.93696;0.0;-0.374784;0.93696;0.0;-0.374784;0.93696;0.0;-0.374784;0.93696;0.0;-0.374784;0.93696;0.0;-0.374784;0.93696;0.0;-0.374784;0.93696;0.0;-0.374784;0.93696;0.0;-0.374784;0.93696;0.0;-0.374784;0.93696;0.0;-0.374784;0.0;0.0;0.0;0.0;0.0;0.0;0.0;0.0;0.0;0.0;0.0;0.0;0.0;0.0;0.0;0.0;0.0;0.0;0.0;0.0;0.0;0.0;0.0;0.0;0.0;0.0;0.0;0.0;0.0;0.0;0.0;0.0;0.0;0.0;0.0;0.0;0.0;0.0;0.0;0.0;0.0;0.0;0.0;0.0;0.0;0.0;0.0;0.0;0.0;0.0;0.0;0.0;0.0;0.0;0.0;0.0;0.0;17.92;0.0;0.0;3.26656;2.37568;1.93024;3.26656;2.52416;1.93024;3.26656;2.52416;1.93024;3.26656;2.37568;1.93024;3.26656;2.52416;1.93024;3.26656;2.37568;1.93024;3.26656;2.52416;1.93024;3.26656;2.37568;1.93024;3.26656;2.37568;1.93024;3.26656;2.37568;1.93024;3.26656;2.37568;1.93024;3.26656;2.52416;1.93024;3.26656;2.37568;1.93024;3.26656;2.37568;1.93024;3.26656;2.37568;1.93024;3.26656;2.37568;2.07872;3.26656;2.37568;1.93024;3.26656;2.37568;1.93024;3.26656;2.37568;1.93024;3.26656;2.37568;1.93024
1728658347000;0;25.4;0;255;255;false;73;0.0;0.0;0.0;0.0;0.0;0.0;0.0;0.0;0.0;0.0;0.0;0.0;0.0;0.0;0.0;0.0;0.0;0.0;0.0;0.0;0.0;0.0;0.0;0.0;0.0;0.0;0.0;0.0;0.0;0.0;0.93696;0.0;-0.374784;0.93696;0.0;-0.374784;0.93696;0.0;-0.374784;0.93696;0.0;-0.374784;0.93696;0.0;-0.374784;0.93696;0.0;-0.374784;0.93696;0.0;-0.374784;0.93696;0.0;-0.374784;0.93696;0.0;-0.374784;0.93696;0.0;-0.374784;0.93696;0.0;-0.374784;0.93696;0.0;-0.374784;0.93696;0.0;-0.374784;0.93696;0.0;-0.374784;0.93696;0.0;-0.374784;0.93696;0.0;-0.374784;0.93696;0.0;-0.374784;0.93696;0.0;-0.374784;0.93696;0.0;-0.374784;0.93696;0.0;-0.374784;0.93696;0.0;-0.374784;0.93696;0.0;-0.374784;0.93696;0.0;-0.374784;0.93696;0.0;-0.374784;0.93696;0.0;-0.374784;0.93696;0.0;-0.374784;0.93696;0.0;-0.374784;0.93696;0.0;-0.374784;0.93696;0.0;-0.374784;0.93696;0.0;-0.374784;0.93696;0.0;-0.374784;0.93696;0.0;-0.374784;0.93696;0.0;-0.374784;0.93696;0.0;-0.374784;0.93696;0.0;-0.374784;0.93696;0.0;-0.374784;0.93696;0.0;-0.374784;0.93696;0.0;-0.374784;0.93696;0.0;-0.374784;0.93696;0.0;-0.374784;0.93696;0.0;-0.374784;0.93696;0.0;-0.374784;0.93696;0.0;-0.374784;0.93696;0.0;-0.374784;0.93696;0.0;-0.374784;0.93696;0.0;-0.374784;0.93696;0.0;-0.374784;0.93696;0.0;-0.374784;0.93696;0.0;-0.374784;0.93696;0.0;-0.374784;0.93696;0.0;-0.374784;0.93696;0.0;-0.374784;0.93696;0.0;-0.374784;0.93696;0.0;-0.374784;0.93696;0.0;-0.374784;0.93696;0.0;-0.374784;0.93696;0.0;-0.374784;0.93696;0.0;-0.374784;0.93696;0.0;-0.374784;0.93696;0.0;-0.374784;0.93696;0.0;-0.374784;0.93696;0.0;-0.374784;0.93696;0.0;-0.374784;0.93696;0.0;-0.374784;0.93696;0.0;-0.374784;0.93696;0.0;-0.374784;0.93696;0.0;-0.374784;0.93696;0.0;-0.374784;0.93696;0.0;-0.374784;0.93696;0.0;-0.374784;0.93696;0.0;-0.374784;0.93696;0.0;-0.374784;0.93696;0.0;-0.374784;0.93696;0.0;-0.374784;0.93696;0.0;-0.374784;0.93696;0.0;-0.374784;0.93696;0.0;-0.374784;0.93696;0.0;-0.374784;0.93696;0.0;-0.374784;0.93696;0.0;-0.374784;17.92;0.0;0.0;17.92;0.0;0.0;0.0;0.0;0.0;0.0;0.0;0.0;0.0;0.0;0.0;0.0;0.0;0.0;0.0;0.0;0.0;0.0;0.0;0.0;0.0;0.0;0.0;0.0;0.0;0.0;0.0;0.0;0.0;0.0;0.0;0.0;0.0;0.0;0.0;0.0;0.0;0.0;0.0;0.0;0.0;0.0;0.0;0.0;0.0;0.0;0.0;0.0;0.0;0.0;0.0;0.0;0.0;0.0;0.0;0.0;3.26656;2.37568;1.93024;3.26656;2.37568;1.93024;3.26656;2.37568;2.07872;3.26656;2.37568;1.93024;3.26656;2.37568;1.93024;3.26656;2.37568;1.93024;3.26656;2.37568;1.93024;3.26656;2.37568;1.93024;3.26656;2.37568;2.07872;3.26656;2.37568;1.93024;3.26656;2.37568;1.93024;3.26656;2.37568;1.93024;3.26656;2.37568;1.93024;3.26656;2.37568;1.93024;3.26656;2.37568;1.93024;3.26656;2.37568;1.93024;3.26656;2.37568;1.93024;3.26656;2.37568;1.93024;3.26656;2.37568;1.93024;3.26656;2.37568;1.93024
1728658348000;0;25.4;0;255;255;false;73;0.0;0.0;0.0;0.0;0.0;0.0;0.0;0.0;0.0;0.0;0.0;0.0;0.0;0.0;0.0;0.0;0.0;0.0;0.0;0.0;0.0;0.0;0.0;0.0;0.0;0.0;0.0;0.0;0.0;0.0;0.93696;0.0;-0.374784;0.93696;0.0;-0.374784;0.93696;0.0;-0.374784;0.93696;0.0;-0.374784;0.93696;0.0;-0.374784;0.93696;0.0;-0.374784;0.93696;0.0;-0.374784;0.93696;0.0;-0.374784;0.93696;0.0;-0.374784;0.93696;0.0;-0.374784;0.93696;0.0;-0.374784;0.93696;0.0;-0.374784;0.93696;0.0;-0.374784;0.93696;0.0;-0.374784;0.93696;0.0;-0.374784;0.93696;0.0;-0.374784;0.93696;0.0;-0.374784;0.93696;0.0;-0.374784;0.93696;0.0;-0.374784;0.93696;0.0;-0.374784;0.93696;0.0;-0.374784;0.93696;0.0;-0.374784;0.93696;0.0;-0.374784;0.93696;0.0;-0.374784;0.93696;0.0;-0.374784;0.93696;0.0;-0.374784;0.93696;0.0;-0.374784;0.93696;0.0;-0.374784;0.93696;0.0;-0.374784;0.93696;0.0;-0.374784;0.93696;0.0;-0.374784;0.93696;0.0;-0.374784;0.93696;0.0;-0.374784;0.93696;0.0;-0.374784;0.93696;0.0;-0.374784;0.93696;0.0;-0.374784;0.93696;0.0;-0.374784;0.93696;0.0;-0.374784;0.93696;0.0;-0.374784;0.93696;0.0;-0.374784;0.93696;0.0;-0.374784;0.93696;0.0;-0.374784;0.93696;0.0;-0.374784;0.93696;0.0;-0.374784;0.93696;0.0;-0.374784;0.93696;0.0;-0.374784;0.93696;0.0;-0.374784;0.93696;0.0;-0.374784;0.93696;0.0;-0.374784;0.93696;0.0;-0.374784;0.93696;0.0;-0.374784;0.93696;0.0;-0.374784;0.93696;0.0;-0.374784;0.93696;0.0;-0.374784;0.93696;0.0;-0.374784;0.93696;0.0;-0.374784;0.93696;0.0;-0.374784;0.93696;0.0;-0.374784;0.93696;0.0;-0.374784;0.93696;0.0;-0.374784;0.93696;0.0;-0.374784;0.93696;0.0;-0.374784;0.93696;0.0;-0.374784;0.93696;0.0;-0.374784;0.93696;0.0;-0.374784;0.93696;0.0;-0.374784;0.93696;0.0;-0.374784;0.93696;0.0;-0.374784;0.93696;0.0;-0.374784;0.93696;0.0;-0.374784;0.93696;0.0;-0.374784;0.93696;0.0;-0.374784;0.93696;0.0;-0.374784;0.93696;0.0;-0.374784;0.93696;0.0;-0.374784;0.93696;0.0;-0.374784;0.93696;0.0;-0.374784;0.93696;0.0;-0.374784;0.93696;0.0;-0.374784;0.93696;0.0;-0.374784;0.0;0.0;0.0;0.0;0.0;0.0;0.0;0.0;0.0;0.0;0.0;0.0;0.0;0.0;0.0;0.0;0.0;0.0;0.0;0.0;0.0;0.0;0.0;0.0;0.0;0.0;0.0;0.0;0.0;0.0;0.0;0.0;0.0;0.0;0.0;0.0;0.0;0.0;0.0;0.0;0.0;0.0;0.0;0.0;0.0;0.0;0.0;0.0;0.0;0.0;0.0;0.0;0.0;0.0;0.0;0.0;0.0;0.0;0.0;0.0;3.26656;2.37568;1.93024;3.26656;2.37568;1.93024;3.26656;2.37568;1.93024;3.26656;2.37568;1.93024;3.26656;2.37568;1.93024;3.26656;2.37568;1.93024;3.26656;2.52416;1.93024;3.26656;2.37568;2.07872;3.26656;2.37568;1.93024;3.26656;2.37568;1.93024;3.26656;2.37568;2.07872;3.26656;2.52416;1.93024;3.26656;2.37568;1.93024;3.26656;2.37568;2.07872;3.26656;2.37568;1.93024;3.26656;2.52416;2.07872;3.26656;2.52416;1.93024;3.26656;2.37568;1.93024;3.26656;2.52416;1.93024;3.26656;2.37568;1.93024
1728658349000;0;25.4;0;255;255;false;73;0.0;0.0;0.0;0.0;0.0;0.0;0.0;0.0;0.0;0.0;0.0;0.0;0.0;0.0;0.0;0.0;0.0;0.0;0.0;0.0;0.0;0.0;0.0;0.0;0.0;0.0;0.0;0.0;0.0;0.0;0.93696;0.0;-0.374784;0.93696;0.0;-0.374784;0.93696;0.0;-0.374784;0.93696;0.0;-0.374784;0.93696;0.0;-0.374784;0.93696;0.0;-0.374784;0.93696;0.0;-0.374784;0.93696;0.0;-0.374784;0.93696;0.0;-0.374784;0.93696;0.0;-0.374784;0.93696;0.0;-0.374784;0.93696;0.0;-0.374784;0.93696;0.0;-0.374784;0.93696;0.0;-0.374784;0.93696;0.0;-0.374784;0.93696;0.0;-0.374784;0.93696;0.0;-0.374784;0.93696;0.0;-0.374784;0.93696;0.0;-0.374784;0.93696;0.0;-0.374784;0.93696;0.0;-0.374784;0.93696;0.0;-0.374784;0.93696;0.0;-0.374784;0.93696;0.0;-0.374784;0.93696;0.0;-0.374784;0.93696;0.0;-0.374784;0.93696;0.0;-0.374784;0.93696;0.0;-0.374784;0.93696;0.0;-0.374784;0.93696;0.0;-0.374784;0.93696;0.0;-0.374784;0.93696;0.0;-0.374784;0.93696;0.0;-0.374784;0.93696;0.0;-0.374784;0.93696;0.0;-0.374784;0.93696;0.0;-0.374784;0.93696;0.0;-0.374784;0.93696;0.0;-0.374784;0.93696;0.0;-0.374784;0.93696;0.0;-0.374784;0.93696;0.0;-0.374784;0.93696;0.0;-0.374784;0.93696;0.0;-0.374784;0.93696;0.0;-0.374784;0.93696;0.0;-0.374784;0.93696;0.0;-0.374784;0.93696;0.0;-0.374784;0.93696;0.0;-0.374784;0.93696;0.0;-0.374784;0.93696;0.0;-0.374784;0.93696;0.0;-0.374784;0.93696;0.0;-0.374784;0.93696;0.0;-0.374784;0.93696;0.0;-0.374784;0.93696;0.0;-0.374784;0.93696;0.0;-0.374784;0.93696;0.0;-0.374784;0.93696;0.0;-0.374784;0.93696;0.0;-0.374784;0.93696;0.0;-0.374784;0.93696;0.0;-0.374784;0.93696;0.0;-0.374784;0.93696;0.0;-0.374784;0.93696;0.0;-0.374784;0.93696;0.0;-0.374784;0.93696;0.0;-0.374784;0.93696;0.0;-0.374784;0.93696;0.0;-0.374784;0.93696;0.0;-0.374784;0.93696;0.0;-0.374784;0.93696;0.0;-0.374784;0.93696;0.0;-0.374784;0.93696;0.0;-0.374784;0.93696;0.0;-0.374784;0.93696;0.0;-0.374784;0.93696;0.0;-0.374784;0.93696;0.0;-0.374784;0.93696;0.0;-0.374784;0.93696;0.0;-0.374784;0.93696;0.0;-0.374784;0.0;0.0;0.0;0.0;0.0;0.0;0.0;0.0;0.0;0.0;0.0;0.0;0.0;0.0;0.0;0.0;0.0;0.0;0.0;0.0;0.0;0.0;0.0;0.0;0.0;0.0;0.0;0.0;0.0;0.0;0.0;0.0;0.0;0.0;0.0;0.0;0.0;0.0;0.0;0.0;0.0;0.0;0.0;0.0;0.0;0.0;0.0;0.0;0.0;0.0;0.0;0.0;0.0;0.0;0.0;0.0;0.0;0.0;0.0;0.0;3.26656;2.52416;1.93024;3.26656;2.37568;1.93024;3.26656;2.37568;1.93024;3.11808;2.52416;1.93024;3.11808;2.37568;1.93024;3.26656;2.52416;2.07872;3.11808;2.37568;1.93024;3.11808;2.37568;2.07872;3.26656;2.52416;2.07872;3.26656;2.52416;1.93024;3.26656;2.52416;2.07872;3.26656;2.52416;2.07872;3.11808;2.37568;2.07872;3.26656;2.37568;2.07872;3.26656;2.37568;2.07872;3.26656;2.37568;2.07872;3.11808;2.37568;2.07872;3.26656;2.52416;2.07872;3.26656;2.37568;2.07872;3.26656;2.52416;2.07872
1728658350000;0;25.4;0;255;255;false;73;0.0;0.0;0.0;0.0;0.0;0.0;0.0;0.0;0.0;0.0;0.0;0.0;0.0;0.0;0.0;0.0;0.0;0.0;0.0;0.0;0.0;0.0;0.0;0.0;0.0;0.0;0.0;0.0;0.0;0.0;0.93696;0.0;-0.374784;0.93696;0.0;-0.374784;0.93696;0.0;-0.374784;0.93696;0.0;-0.374784;0.93696;0.0;-0.374784;0.93696;0.0;-0.374784;0.93696;0.0;-0.374784;0.93696;0.0;-0.374784;0.93696;0.0;-0.374784;0.93696;0.0;-0.374784;0.93696;0.0;-0.374784;0.93696;0.0;-0.374784;0.93696;0.0;-0.374784;0.93696;0.0;-0.374784;0.93696;0.0;-0.374784;0.93696;0.0;-0.374784;0.93696;0.0;-0.374784;0.93696;0.0;-0.374784;0.93696;0.0;-0.374784;0.93696;0.0;-0.374784;0.93696;0.0;-0.374784;0.93696;0.0;-0.374784;0.93696;0.0;-0.374784;0.93696;0.0;-0.374784;0.93696;0.0;-0.374784;0.93696;0.0;-0.374784;0.93696;0.0;-0.374784;0.93696;0.0;-0.374784;0.93696;0.0;-0.374784;0.93696;0.0;-0.374784;0.93696;0.0;-0.374784;0.93696;0.0;-0.374784;0.93696;0.0;-0.374784;0.93696;0.0;-0.374784;0.93696;0.0;-0.374784;0.93696;0.0;-0.374784;0.93696;0.0;-0.374784;0.93696;0.0;-0.374784;0.93696;0.0;-0.374784;0.93696;0.0;-0.374784;0.93696;0.0;-0.374784;0.93696;0.0;-0.374784;0.93696;0.0;-0.374784;0.93696;0.0;-0.374784;0.93696;0.0;-0.374784;0.93696;0.0;-0.374784;0.93696;0.0;-0.374784;0.93696;-0.187392;-0.374784;0.93696;-0.187392;-0.374784;0.93696;-0.187392;-0.374784;0.93696;-0.187392;-0.374784;0.93696;-0.187392;-0.374784;0.93696;-0.187392;-0.374784;0.93696;-0.187392;-0.374784;0.93696;-0.187392;-0.374784;0.93696;-0.187392;-0.374784;0.93696;-0.187392;-0.374784;0.93696;-0.187392;-0.374784;0.93696;-0.187392;-0.374784;0.749568;-0.187392;-0.374784;0.93696;-0.187392;-0.374784;0.93696;-0.187392;-0.374784;0.749568;-0.187392;-0.374784;0.749568;-0.187392;-0.374784;0.93696;-0.187392;-0.374784;0.93696;-0.187392;-0.374784;0.93696;-0.187392;-0.374784;0.749568;-0.374784;-0.374784;0.749568;-0.374784;-0.562176;0.749568;-0.374784;-0.374784;0.93696;-0.374784;-0.374784;0.93696;-0.374784;-0.374784;0.93696;-0.374784;-0.562176;0.749568;-0.187392;-0.562176;0.749568;-0.187392;-0.374784;0.749568;-0.187392;-0.374784;0.749568;-0.374784;-0.374784;0.749568;-0.374784;-0.374784;0.749568;-0.374784;-0.374784;0.749568;-0.374784;-0.374784;0.0;0.0;0.0;0.0;0.0;0.0;0.0;0.0;0.0;0.0;0.0;0.0;0.0;0.0;0.0;0.0;0.0;0.0;-17.92;0.0;0.0;-17.92;0.0;-17.92;-17.92;0.0;-17.92;-35.84;0.0;-17.92;-35.84;17.92;-17.92;-35.84;17.92;-17.92;-53.760000000000005;17.92;-17.92;-53.760000000000005;17.92;0.0;-53.760000000000005;17.92;0.0;-35.84;17.92;0.0;-35.84;17.92;0.0;-35.84;17.92;0.0;-35.84;17.92;0.0;-35.84;17.92;0.0;3.26656;2.52416;2.07872;3.26656;2.52416;2.07872;3.26656;2.52416;2.07872;3.26656;2.52416;2.07872;3.11808;2.52416;2.07872;3.26656;2.37568;2.07872;3.11808;2.37568;2.07872;3.11808;2.52416;2.07872;3.11808;2.52416;1.93024;3.11808;2.52416;1.93024;3.11808;2.52416;1.93024;3.11808;2.52416;1.93024;3.11808;2.52416;1.93024;3.11808;2.52416;1.93024;3.11808;2.67264;1.93024;3.11808;2.67264;1.78176;3.11808;2.67264;1.78176;3.11808;2.67264;1.78176;3.11808;2.67264;1.78176;2.9696;2.67264;1.78176
1728658351000;0;25.4;0;255;255;false;73;0.0;0.0;0.0;0.0;0.0;0.0;0.0;0.0;0.0;0.0;0.0;0.0;0.0;0.0;0.0;0.0;0.0;0.0;0.0;0.0;0.0;0.0;0.0;0.0;0.0;0.0;0.0;0.0;0.0;0.0;0.749568;-0.374784;-0.374784;0.749568;-0.374784;-0.562176;0.749568;-0.374784;-0.562176;0.749568;-0.374784;-0.562176;0.749568;-0.374784;-0.562176;0.749568;-0.374784;-0.562176;0.749568;-0.374784;-0.562176;0.749568;-0.374784;-0.562176;0.749568;-0.374784;-0.562176;0.749568;-0.374784;-0.562176;0.749568;-0.374784;-0.562176;0.749568;-0.374784;-0.562176;0.749568;-0.374784;-0.562176;0.749568;-0.374784;-0.562176;0.749568;-0.374784;-0.562176;0.749568;-0.374784;-0.562176;0.749568;-0.374784;-0.562176;0.749568;-0.374784;-0.562176;0.749568;-0.374784;-0.562176;0.749568;-0.374784;-0.562176;0.749568;-0.374784;-0.562176;0.749568;-0.374784;-0.562176;0.749568;-0.374784;-0.562176;0.749568;-0.374784;-0.562176;0.749568;-0.374784;-0.562176;0.749568;-0.374784;-0.562176;0.749568;-0.374784;-0.562176;0.749568;-0.374784;-0.562176;0.749568;-0.374784;-0.562176;0.749568;-0.374784;-0.562176;0.749568;-0.374784;-0.562176;0.749568;-0.374784;-0.562176;0.749568;-0.374784;-0.562176;0.749568;-0.374784;-0.562176;0.749568;-0.374784;-0.562176;0.749568;-0.374784;-0.562176;0.749568;-0.374784;-0.562176;0.749568;-0.374784;-0.562176;0.749568;-0.374784;-0.562176;0.749568;-0.374784;-0.562176;0.749568;-0.374784;-0.562176;0.749568;-0.374784;-0.562176;0.749568;-0.374784;-0.562176;0.749568;-0.374784;-0.562176;0.749568;-0.374784;-0.562176;0.749568;-0.374784;-0.562176;0.749568;-0.374784;-0.374784;0.749568;-0.374784;-0.562176;0.749568;-0.374784;-0.562176;0.749568;-0.374784;-0.374784;0.749568;-0.374784;-0.374784;0.749568;-0.374784;-0.374784;0.749568;-0.374784;-0.374784;0.749568;-0.374784;-0.374784;0.749568;-0.374784;-0.374784;0.749568;-0.374784;-0.374784;0.749568;-0.374784;-0.374784;0.749568;-0.374784;-0.374784;0.93696;-0.374784;-0.374784;0.93696;-0.374784;-0.374784;0.93696;-0.187392;-0.374784;0.93696;-0.187392;-0.374784;0.93696;-0.187392;-0.374784;0.93696;-0.187392;-0.374784;0.93696;-0.187392;-0.374784;0.93696;-0.187392;-0.374784;0.93696;-0.187392;-0.374784;0.93696;-0.187392;-0.374784;0.93696;-0.187392;-0.374784;0.93696;-0.187392;-0.374784;0.93696;-0.187392;-0.374784;0.93696;-0.187392;-0.374784;0.93696;-0.187392;-0.374784;0.93696;-0.187392;-0.374784;0.93696;-0.187392;-0.374784;0.93696;-0.187392;-0.374784;0.93696;-0.187392;-0.374784;0.93696;-0.187392;-0.374784;0.93696;-0.187392;-0.374784;0.93696;-0.187392;-0.374784;-35.84;17.92;0.0;-35.84;17.92;0.0;-35.84;35.84;0.0;-35.84;35.84;17.92;-35.84;35.84;17.92;-35.84;17.92;17.92;-17.92;17.92;17.92;-17.92;17.92;17.92;-17.92;17.92;17.92;-17.92;0.0;35.84;-17.92;0.0;35.84;-17.92;-17.92;35.84;-17.92;-17.92;35.84;-17.92;-17.92;35.84;-17.92;-17.92;35.84;-17.92;-17.92;17.92;-17.92;0.0;35.84;-17.92;0.0;35.84;-17.92;0.0;35.84;-17.92;0.0;35.84;3.11808;2.67264;1.78176;3.11808;2.82112;1.78176;2.9696;2.82112;1.63328;2.9696;2.82112;1.63328;2.9696;2.67264;1.63328;3.11808;2.82112;1.63328;3.11808;2.67264;1.63328;2.9696;2.82112;1.63328;3.11808;2.67264;1.4848;3.11808;2.67264;1.4848;3.11808;2.67264;1.4848;3.11808;2.67264;1.4848;3.11808;2.67264;1.33632;3.26656;2.67264;1.33632;3.26656;2.67264;1.33632;3.26656;2.67264;1.33632;3.26656;2.67264;1.18784;3.26656;2.67264;1.18784;3.26656;2.52416;1.03936;3.41504;2.52416;1.18784
1728658352000;0;25.4;0;255;255;false;73;0.0;0.0;0.0;0.0;0.0;0.0;0.0;0.0;0.0;0.0;0.0;0.0;0.0;0.0;0.0;0.0;0.0;0.0;0.0;0.0;0.0;0.0;0.0;0.0;0.0;0.0;0.0;0.0;0.0;0.0;0.93696;0.0;-0.374784;0.93696;0.0;-0.374784;0.93696;0.0;-0.374784;0.93696;0.0;-0.374784;0.93696;0.0;-0.374784;0.93696;0.0;-0.374784;0.93696;0.0;-0.374784;0.93696;0.0;-0.374784;0.93696;0.0;-0.374784;0.93696;0.0;-0.374784;0.93696;0.0;-0.374784;0.93696;0.0;-0.374784;0.93696;0.0;-0.374784;0.93696;0.0;-0.374784;0.93696;0.0;-0.374784;0.93696;0.0;-0.374784;0.93696;0.0;-0.374784;0.93696;0.0;-0.374784;0.93696;0.0;-0.374784;0.93696;0.0;-0.374784;0.93696;0.0;-0.374784;0.93696;0.0;-0.374784;0.93696;0.0;-0.374784;0.93696;0.0;-0.374784;0.93696;0.0;-0.374784;0.93696;0.0;-0.374784;0.93696;0.0;-0.374784;0.93696;0.0;-0.374784;0.93696;0.0;-0.374784;0.93696;0.0;-0.374784;0.93696;0.187392;-0.374784;0.93696;0.187392;-0.374784;0.93696;0.187392;-0.374784;0.93696;0.187392;-0.374784;0.93696;0.187392;-0.374784;0.93696;0.187392;-0.374784;0.93696;0.187392;-0.374784;0.93696;0.0;-0.374784;0.93696;0.0;-0.374784;0.93696;0.187392;-0.374784;0.93696;0.0;-0.374784;0.93696;0.0;-0.374784;0.93696;0.187392;-0.374784;0.93696;0.0;-0.374784;0.93696;0.0;-0.374784;0.93696;0.187392;-0.374784;0.93696;0.0;-0.374784;0.93696;0.0;-0.374784;0.93696;0.0;-0.374784;0.93696;0.0;-0.374784;0.93696;0.187392;-0.374784;0.93696;0.187392;-0.374784;0.93696;0.187392;-0.374784;0.93696;0.0;-0.374784;0.93696;0.0;-0.374784;0.93696;0.187392;-0.374784;0.93696;0.0;-0.374784;0.93696;0.0;-0.374784;0.93696;0.187392;-0.374784;0.93696;0.0;-0.374784;0.93696;0.187392;-0.374784;0.93696;0.0;-0.374784;0.93696;0.0;-0.374784;0.93696;0.187392;-0.374784;0.93696;0.187392;-0.374784;0.93696;0.187392;-0.374784;0.93696;0.187392;-0.374784;0.93696;0.0;-0.374784;0.93696;0.0;-0.374784;0.93696;0.187392;-0.374784;0.93696;0.0;-0.562176;0.93696;0.187392;-0.374784;0.93696;0.187392;-0.374784;0.93696;0.0;-0.374784;0.93696;0.0;-0.374784;0.93696;0.0;-0.374784;0.93696;0.0;-0.562176;0.93696;0.0;-0.374784;0.93696;0.0;-0.374784;0.93696;0.0;-0.562176;-17.92;0.0;35.84;-17.92;0.0;35.84;-17.92;0.0;35.84;-35.84;0.0;35.84;-35.84;0.0;17.92;-35.84;0.0;17.92;-35.84;17.92;17.92;-35.84;17.92;35.84;-35.84;0.0;35.84;-53.760000000000005;0.0;35.84;-53.760000000000005;0.0;35.84;-53.760000000000005;0.0;35.84;-53.760000000000005;0.0;35.84;-53.760000000000005;17.92;35.84;-53.760000000000005;17.92;35.84;-53.760000000000005;17.92;35.84;-53.760000000000005;0.0;35.84;-53.760000000000005;0.0;35.84;-53.760000000000005;0.0;35.84;-53.760000000000005;0.0;35.84;3.41504;2.52416;1.03936;3.41504;2.52416;1.03936;3.41504;2.52416;1.03936;3.41504;2.52416;1.03936;3.41504;2.52416;1.03936;3.41504;2.37568;1.03936;3.41504;2.37568;0.89088;3.41504;2.37568;1.03936;3.56352;2.37568;0.89088;3.56352;2.37568;0.89088;3.56352;2.2272;0.89088;3.56352;2.2272;0.7424;3.56352;2.2272;0.7424;3.56352;2.2272;0.7424;3.56352;2.07872;0.7424;3.56352;2.07872;0.7424;3.56352;2.07872;0.7424;3.56352;1.93024;0.7424;3.56352;2.07872;0.7424;3.56352;1.93024;0.7424
1728658353000;0;25.4;0;255;255;false;73;0.0;0.0;0.0;0.0;0.0;0.0;0.0;0.0;0.0;0.0;0.0;0.0;0.0;0.0;0.0;0.0;0.0;0.0;0.0;0.0;0.0;0.0;0.0;0.0;0.0;0.0;0.0;0.0;0.0;0.0;0.93696;0.187392;-0.374784;0.93696;0.187392;-0.562176;0.93696;0.187392;-0.562176;0.93696;0.187392;-0.562176;0.93696;0.187392;-0.562176;0.93696;0.187392;-0.562176;0.93696;0.187392;-0.374784;0.93696;0.187392;-0.374784;0.93696;0.187392;-0.374784;0.93696;0.187392;-0.374784;0.93696;0.187392;-0.374784;0.93696;0.187392;-0.374784;0.93696;0.187392;-0.374784;0.93696;0.187392;-0.374784;0.93696;0.187392;-0.562176;0.93696;0.187392;-0.374784;0.93696;0.187392;-0.374784;0.93696;0.187392;-0.374784;0.93696;0.187392;-0.562176;0.93696;0.187392;-0.562176;0.93696;0.187392;-0.562176;0.93696;0.187392;-0.562176;0.93696;0.187392;-0.562176;0.93696;0.187392;-0.562176;0.93696;0.187392;-0.562176;0.93696;0.187392;-0.562176;0.93696;0.187392;-0.562176;0.749568;0.187392;-0.562176;0.749568;0.187392;-0.562176;0.749568;0.187392;-0.562176;0.749568;0.187392;-0.562176;0.93696;0.0;-0.562176;0.93696;0.0;-0.562176;0.93696;0.0;-0.562176;0.93696;0.0;-0.562176;0.93696;0.0;-0.562176;0.93696;0.0;-0.562176;0.93696;0.0;-0.562176;0.93696;0.0;-0.562176;0.749568;0.0;-0.562176;0.749568;0.0;-0.562176;0.749568;0.0;-0.562176;0.749568;0.0;-0.562176;0.749568;0.0;-0.562176;0.749568;0.0;-0.562176;0.749568;0.0;-0.562176;0.749568;0.0;-0.562176;0.749568;0.0;-0.562176;0.749568;0.0;-0.562176;0.749568;0.0;-0.562176;0.749568;0.0;-0.562176;0.749568;0.0;-0.562176;0.749568;0.0;-0.562176;0.93696;0.0;-0.562176;0.749568;0.0;-0.562176;0.749568;0.0;-0.562176;0.749568;0.0;-0.562176;0.749568;0.0;-0.562176;0.749568;0.0;-0.562176;0.749568;0.0;-0.562176;0.749568;0.0;-0.562176;0.749568;0.0;-0.562176;0.749568;0.0;-0.562176;0.749568;0.0;-0.562176;0.749568;0.0;-0.562176;0.749568;0.0;-0.562176;0.749568;0.0;-0.562176;0.749568;0.0;-0.562176;0.749568;-0.187392;-0.749568;0.749568;-0.187392;-0.749568;0.562176;-0.187392;-0.749568;0.562176;-0.374784;-0.749568;0.749568;-0.374784;-0.749568;0.749568;-0.374784;-0.749568;0.749568;-0.187392;-0.749568;0.562176;-0.187392;-0.749568;0.562176;-0.374784;-0.749568;0.562176;-0.187392;-0.749568;0.562176;-0.187392;-0.749568;0.562176;-0.187392;-0.749568;-35.84;0.0;35.84;-35.84;0.0;17.92;-35.84;0.0;17.92;-35.84;0.0;17.92;-35.84;0.0;17.92;-53.760000000000005;0.0;17.92;-53.760000000000005;17.92;17.92;-53.760000000000005;17.92;17.92;-53.760000000000005;17.92;0.0;-53.760000000000005;17.92;0.0;-35.84;17.92;0.0;-17.92;17.92;0.0;-17.92;17.92;0.0;-17.92;17.92;0.0;-35.84;35.84;0.0;-35.84;35.84;0.0;-35.84;53.760000000000005;0.0;-17.92;71.68;17.92;-17.92;71.68;0.0;0.0;71.68;0.0;3.56352;1.93024;0.7424;3.56352;1.93024;0.7424;3.56352;1.93024;0.7424;3.56352;1.78176;0.89088;3.56352;1.78176;0.7424;3.56352;1.78176;0.89088;3.56352;1.78176;0.89088;3.56352;1.78176;0.89088;3.56352;1.78176;0.89088;3.56352;1.78176;0.89088;3.56352;1.78176;1.03936;3.56352;1.63328;1.03936;3.56352;1.63328;1.03936;3.56352;1.78176;1.03936;3.56352;1.78176;1.18784;3.56352;1.78176;1.18784;3.56352;1.78176;1.18784;3.56352;1.78176;1.33632;3.56352;1.63328;1.4848;3.56352;1.63328;1.4848
1728658354000;0;25.4;0;255;255;false;73;0.0;0.0;0.0;0.0;0.0;0.0;0.0;0.0;0.0;0.0;0.0;0.0;0.0;0.0;0.0;0.0;0.0;0.0;0.0;0.0;0.0;0.0;0.0;0.0;0.0;0.0;0.0;0.0;0.0;0.0;0.562176;-0.187392;-0.749568;0.374784;-0.187392;-0.749568;0.374784;-0.374784;-0.749568;0.374784;-0.187392;-0.749568;0.374784;-0.187392;-0.749568;0.374784;-0.187392;-0.749568;0.374784;-0.374784;-0.749568;0.374784;-0.187392;-0.749568;0.374784;-0.187392;-0.749568;0.374784;-0.187392;-0.749568;0.374784;-0.187392;-0.749568;0.187392;-0.187392;-0.749568;0.187392;-0.187392;-0.749568;0.187392;-0.187392;-0.749568;0.187392;-0.187392;-0.749568;0.187392;-0.187392;-0.749568;0.187392;-0.187392;-0.749568;0.187392;-0.187392;-0.749568;0.187392;-0.187392;-0.749568;0.187392;-0.187392;-0.749568;0.0;-0.187392;-0.749568;0.187392;-0.187392;-0.749568;0.187392;0.0;-0.749568;0.0;0.0;-0.749568;0.0;0.0;-0.93696;0.0;0.0;-0.93696;0.0;0.187392;-0.93696;0.0;0.187392;-0.93696;0.0;0.187392;-0.93696;0.0;0.187392;-0.93696;0.0;0.187392;-0.93696;0.0;0.187392;-0.93696;0.0;0.187392;-0.93696;-0.187392;0.187392;-0.93696;-0.187392;0.187392;-0.93696;-0.187392;0.374784;-0.93696;-0.187392;0.374784;-0.93696;-0.187392;0.374784;-0.93696;-0.187392;0.374784;-0.93696;-0.374784;0.374784;-0.93696;-0.374784;0.374784;-0.93696;-0.374784;0.374784;-0.93696;-0.374784;0.374784;-0.93696;-0.374784;0.374784;-0.93696;-0.374784;0.374784;-0.93696;-0.374784;0.374784;-0.93696;-0.374784;0.374784;-0.93696;-0.374784;0.374784;-0.93696;-0.374784;0.374784;-0.93696;-0.562176;0.374784;-0.93696;-0.562176;0.374784;-0.93696;-0.374784;0.562176;-0.93696;-0.374784;0.562176;-0.93696;-0.374784;0.562176;-0.93696;-0.374784;0.562176;-0.93696;-0.374784;0.562176;-0.93696;-0.374784;0.562176;-0.93696;-0.562176;0.562176;-0.93696;-0.562176;0.562176;-0.93696;-0.562176;0.562176;-0.93696;-0.562176;0.749568;-0.93696;-0.562176;0.562176;-0.93696;-0.562176;0.562176;-0.93696;-0.562176;0.562176;-0.93696;-0.562176;0.562176;-0.93696;-0.562176;0.562176;-0.93696;-0.562176;0.562176;-0.93696;-0.562176;0.562176;-0.93696;-0.562176;0.562176;-0.93696;-0.562176;0.562176;-0.93696;-0.562176;0.562176;-0.93696;-0.562176;0.749568;-0.93696;-0.562176;0.749568;-0.93696;-0.562176;0.749568;-0.93696;-0.562176;0.562176;-0.93696;-0.562176;0.562176;-0.93696;-0.562176;0.562176;-0.93696;-0.562176;0.562176;-0.93696;-0.562176;0.562176;-0.93696;-0.562176;0.562176;-0.93696;0.0;71.68;17.92;0.0;89.60000000000001;17.92;17.92;89.60000000000001;17.92;17.92;89.60000000000001;17.92;35.84;89.60000000000001;17.92;35.84;89.60000000000001;0.0;53.760000000000005;107.52000000000001;0.0;53.760000000000005;107.52000000000001;0.0;53.760000000000005;89.60000000000001;0.0;53.760000000000005;89.60000000000001;17.92;53.760000000000005;89.60000000000001;0.0;35.84;71.68;0.0;53.760000000000005;53.760000000000005;0.0;53.760000000000005;35.84;0.0;35.84;35.84;0.0;35.84;35.84;0.0;17.92;17.92;17.92;17.92;17.92;0.0;0.0;0.0;0.0;0.0;0.0;17.92;3.41504;1.63328;1.63328;3.41504;1.63328;1.78176;3.41504;1.63328;1.93024;3.41504;1.63328;2.07872;3.26656;1.63328;2.2272;3.26656;1.63328;2.37568;3.11808;1.63328;2.37568;3.11808;1.63328;2.52416;2.9696;1.4848;2.52416;2.9696;1.4848;2.67264;2.82112;1.4848;2.67264;2.82112;1.4848;2.82112;2.67264;1.33632;2.67264;2.67264;1.33632;2.67264;2.67264;1.18784;2.67264;2.67264;1.18784;2.67264;2.67264;1.18784;2.67264;2.52416;1.18784;2.67264;2.52416;1.18784;2.67264;2.52416;1.18784;2.67264
1728658355000;0;25.4;9;255;255;false;73;0.0;0.0;0.0;0.0;0.0;0.0;0.0;0.0;0.0;0.00010219999999999999;0.0;0.0;0.0;0.0;0.0;0.0;0.0;0.0;0.0;-0.000102;0.0;0.0;0.0;0.0;0.0;0.0;0.0;0.0;0.0;0.0;-0.562176;0.562176;-0.749568;-0.562176;0.562176;-0.749568;-0.562176;0.562176;-0.749568;-0.562176;0.374784;-0.749568;-0.562176;0.374784;-0.749568;-0.374784;0.374784;-0.749568;-0.374784;0.374784;-0.749568;-0.374784;0.374784;-0.749568;-0.374784;0.374784;-0.749568;-0.374784;0.374784;-0.749568;-0.374784;0.374784;-0.749568;-0.374784;0.374784;-0.749568;-0.374784;0.374784;-0.749568;-0.374784;0.374784;-0.749568;-0.374784;0.374784;-0.749568;-0.374784;0.374784;-0.749568;-0.374784;0.374784;-0.749568;-0.374784;0.374784;-0.749568;-0.374784;0.374784;-0.749568;-0.374784;0.562176;-0.749568;-0.374784;0.562176;-0.749568;-0.374784;0.562176;-0.749568;-0.374784;0.562176;-0.749568;-0.374784;0.562176;-0.749568;-0.374784;0.562176;-0.749568;-0.374784;0.562176;-0.749568;-0.374784;0.562176;-0.749568;-0.374784;0.562176;-0.749568;-0.374784;0.562176;-0.749568;-0.374784;0.562176;-0.749568;-0.374784;0.562176;-0.749568;-0.374784;0.562176;-0.749568;-0.374784;0.562176;-0.93696;-0.374784;0.562176;-0.93696;-0.374784;0.562176;-0.93696;-0.374784;0.562176;-0.93696;-0.374784;0.562176;-0.93696;-0.374784;0.562176;-0.93696;-0.374784;0.562176;-0.93696;-0.374784;0.562176;-0.93696;-0.374784;0.562176;-0.93696;-0.374784;0.562176;-0.93696;-0.374784;0.562176;-0.93696;-0.374784;0.562176;-0.93696;-0.374784;0.562176;-0.93696;-0.374784;0.562176;-0.93696;-0.374784;0.562176;-0.93696;-0.562176;0.562176;-0.93696;-0.374784;0.562176;-0.93696;-0.374784;0.562176;-0.93696;-0.374784;0.562176;-0.93696;-0.374784;0.562176;-0.93696;-0.374784;0.562176;-0.93696;-0.374784;0.562176;-0.93696;-0.374784;0.562176;-0.93696;-0.374784;0.562176;-0.93696;-0.374784;0.562176;-0.93696;-0.374784;0.562176;-0.93696;-0.374784;0.562176;-0.93696;-0.374784;0.562176;-0.93696;-0.374784;0.562176;-0.93696;-0.374784;0.562176;-0.93696;-0.374784;0.562176;-0.93696;-0.374784;0.374784;-0.93696;-0.374784;0.562176;-0.93696;-0.374784;0.562176;-0.93696;-0.374784;0.562176;-0.93696;-0.374784;0.562176;-0.93696;-0.374784;0.562176;-0.93696;-0.374784;0.562176;-0.93696;-0.374784;0.562176;-0.93696;-0.374784;0.374784;-0.93696;-0.374784;0.374784;-0.93696;-0.374784;0.374784;-0.93696;-0.374784;0.374784;-0.93696;-0.374784;0.374784;-0.93696;-0.374784;0.374784;-0.93696;-0.374784;0.374784;-0.93696;-0.374784;0.374784;-0.93696;-0.374784;0.374784;-0.93696;-17.92;0.0;0.0;-17.92;0.0;0.0;0.0;0.0;0.0;0.0;0.0;0.0;17.92;0.0;-17.92;17.92;0.0;0.0;0.0;0.0;0.0;0.0;0.0;0.0;0.0;0.0;0.0;0.0;0.0;0.0;0.0;0.0;0.0;0.0;0.0;0.0;0.0;-17.92;0.0;0.0;-17.92;0.0;-17.92;-17.92;0.0;-17.92;-17.92;0.0;-17.92;-17.92;17.92;-17.92;-35.84;17.92;-17.92;-35.84;17.92;-17.92;-35.84;0.0;2.52416;1.18784;2.67264;2.52416;1.18784;2.67264;2.67264;1.18784;2.67264;2.52416;1.18784;2.67264;2.52416;1.18784;2.67264;2.52416;1.18784;2.52416;2.67264;1.18784;2.67264;2.67264;1.18784;2.67264;2.67264;1.18784;2.67264;2.67264;1.18784;2.67264;2.52416;1.18784;2.52416;2.67264;1.18784;2.67264;2.67264;1.18784;2.67264;2.67264;1.18784;2.67264;2.67264;1.18784;2.67264;2.67264;1.18784;2.67264;2.67264;1.18784;2.67264;2.67264;1.18784;2.67264;2.67264;1.18784;2.67264;2.67264;1.18784;2.67264
1728658356000;0;25.4;0;255;255;false;73;41.8210115;41.8209095;41.8208075;41.8207055;41.820603500000004;41.820501500000006;41.82060370000001;41.82070590000001;41.82080810000001;41.82091030000001;-146.8534479;-146.8533457;-146.85324350000002;-146.85314130000003;-146.85303910000005;-146.85293690000006;-146.85303890000006;-146.85314090000006;-146.85324290000005;-146.85334490000005;0.0;0.0;0.0;0.0;0.0;0.0;0.0;0.0;0.0;0.0;-0.374784;0.374784;-0.93696;-0.374784;0.374784;-0.93696;-0.374784;0.374784;-0.93696;-0.374784;0.374784;-0.93696;-0.374784;0.374784;-0.93696;-0.374784;0.374784;-0.93696;-0.374784;0.374784;-0.93696;-0.374784;0.374784;-0.93696;-0.187392;0.374784;-0.93696;-0.187392;0.374784;-0.93696;-0.187392;0.374784;-0.93696;-0.187392;0.374784;-0.93696;-0.187392;0.374784;-0.93696;-0.187392;0.374784;-0.93696;-0.187392;0.187392;-0.93696;0.0;0.187392;-0.93696;0.0;0.187392;-0.93696;-0.187392;0.187392;-0.93696;-0.187392;0.187392;-0.93696;0.0;0.187392;-0.93696;0.0;0.187392;-0.93696;0.0;0.187392;-0.93696;0.0;0.187392;-0.93696;0.0;0.374784;-0.93696;0.187392;0.374784;-0.93696;0.187392;0.187392;-0.93696;0.187392;0.187392;-0.93696;0.187392;0.187392;-0.93696;0.187392;0.187392;-0.93696;0.187392;0.187392;-0.93696;0.187392;0.187392;-0.749568;0.187392;0.187392;-0.93696;0.187392;0.187392;-0.93696;0.187392;0.187392;-0.93696;0.187392;0.187392;-0.93696;0.374784;0.187392;-0.93696;0.374784;0.187392;-0.749568;0.374784;0.187392;-0.749568;0.374784;0.187392;-0.749568;0.374784;0.187392;-0.749568;0.374784;0.187392;-0.749568;0.374784;0.187392;-0.749568;0.374784;0.187392;-0.749568;0.374784;0.187392;-0.93696;0.374784;0.187392;-0.749568;0.374784;0.187392;-0.749568;0.374784;0.187392;-0.749568;0.374784;0.187392;-0.749568;0.562176;0.187392;-0.749568;0.562176;0.187392;-0.749568;0.562176;0.187392;-0.749568;0.562176;0.187392;-0.749568;0.562176;0.187392;-0.749568;0.562176;0.187392;-0.749568;0.562176;0.187392;-0.749568;0.562176;0.187392;-0.749568;0.562176;0.187392;-0.749568;0.562176;0.187392;-0.749568;0.562176;0.187392;-0.749568;0.562176;0.187392;-0.749568;0.562176;0.187392;-0.749568;0.562176;0.187392;-0.749568;0.562176;0.187392;-0.749568;0.749568;0.187392;-0.749568;0.749568;0.187392;-0.562176;0.749568;0.187392;-0.749568;0.749568;0.187392;-0.562176;0.749568;0.187392;-0.562176;0.749568;0.0;-0.562176;0.749568;0.0;-0.562176;0.749568;0.0;-0.562176;0.749568;0.0;-0.562176;0.749568;0.187392;-0.562176;0.749568;0.187392;-0.562176;0.749568;0.0;-0.562176;0.749568;0.0;-0.562176;0.749568;0.0;-0.562176;0.749568;0.0;-0.562176;0.749568;0.0;-0.562176;0.749568;0.187392;-0.562176;-17.92;-53.760000000000005;0.0;-17.92;-53.760000000000005;0.0;-17.92;-71.68;0.0;-17.92;-71.68;0.0;-17.92;-71.68;0.0;-17.92;-89.60000000000001;0.0;-17.92;-89.60000000000001;-17.92;-17.92;-89.60000000000001;-17.92;-17.92;-89.60000000000001;-17.92;-17.92;-71.68;-17.92;-17.92;-71.68;-17.92;-17.92;-71.68;-17.92;-17.92;-71.68;-17.92;-17.92;-71.68;-17.92;-17.92;-71.68;-17.92;-17.92;-71.68;-17.92;0.0;-53.760000000000005;-17.92;0.0;-53.760000000000005;-17.92;0.0;-53.760000000000005;-17.92;0.0;-35.84;-17.92;2.67264;1.33632;2.67264;2.67264;1.33632;2.67264;2.82112;1.33632;2.67264;2.82112;1.18784;2.52416;2.82112;1.33632;2.52416;2.9696;1.33632;2.52416;2.9696;1.33632;2.37568;3.11808;1.33632;2.2272;3.11808;1.33632;2.2272;3.26656;1.33632;2.07872;3.26656;1.33632;2.07872;3.26656;1.33632;1.93024;3.26656;1.4848;1.93024;3.41504;1.4848;1.78176;3.41504;1.4848;1.63328;3.41504;1.4848;1.63328;3.41504;1.4848;1.4848;3.41504;1.4848;1.4848;3.56352;1.4848;1.33632;3.56352;1.4848;1.18784
1728658357000;0;25.4;0;255;255;false;73;43.2478993;43.2477973;43.247695300000004;43.247797500000004;43.247899700000005;43.248001900000006;43.248104100000006;43.24820630000001;43.24830850000001;43.24820650000001;-147.4340264;-147.4339242;-147.43382200000002;-147.43392400000002;-147.43402600000002;-147.43412800000002;-147.43423;-147.434332;-147.434434;-147.43433180000002;0.0;0.0;0.0;0.0;0.0;0.0;0.0;0.0;0.0;0.0;0.93696;0.0;-0.562176;0.93696;0.187392;-0.562176;0.93696;0.0;-0.562176;0.93696;0.0;-0.562176;0.93696;0.0;-0.562176;0.749568;0.0;-0.562176;0.749568;0.0;-0.562176;0.93696;0.0;-0.562176;0.749568;0.0;-0.562176;0.749568;0.0;-0.562176;0.93696;0.187392;-0.562176;0.749568;0.187392;-0.562176;0.749568;0.0;-0.562176;0.93696;0.187392;-0.562176;0.93696;0.187392;-0.562176;0.93696;0.0;-0.562176;0.93696;0.187392;-0.562176;0.93696;0.187392;-0.562176;0.749568;0.187392;-0.562176;0.93696;0.0;-0.562176;0.749568;0.0;-0.562176;0.749568;0.0;-0.562176;0.93696;0.0;-0.562176;0.93696;0.187392;-0.562176;0.93696;0.187392;-0.562176;0.93696;0.187392;-0.562176;0.93696;0.187392;-0.562176;0.93696;0.187392;-0.562176;0.93696;0.187392;-0.562176;0.93696;0.187392;-0.562176;0.93696;0.187392;-0.562176;0.93696;0.187392;-0.562176;0.93696;0.187392;-0.562176;0.93696;0.187392;-0.562176;0.93696;0.0;-0.562176;0.93696;0.0;-0.562176;0.93696;0.0;-0.562176;0.93696;0.0;-0.562176;0.93696;0.0;-0.562176;0.93696;0.0;-0.562176;0.93696;0.0;-0.562176;0.93696;0.0;-0.562176;0.93696;0.0;-0.562176;0.93696;0.0;-0.562176;0.93696;0.0;-0.562176;0.93696;0.0;-0.374784;0.93696;0.0;-0.374784;0.93696;0.0;-0.374784;0.93696;0.0;-0.374784;0.93696;0.0;-0.374784;0.93696;0.0;-0.374784;0.93696;0.0;-0.374784;0.93696;0.0;-0.374784;0.93696;0.0;-0.374784;0.93696;0.0;-0.374784;0.93696;0.0;-0.374784;0.93696;0.0;-0.562176;0.93696;0.0;-0.374784;0.93696;0.0;-0.374784;0.93696;0.0;-0.374784;0.93696;0.0;-0.374784;0.93696;0.0;-0.374784;0.93696;0.0;-0.374784;0.93696;0.0;-0.374784;0.93696;0.0;-0.374784;0.93696;0.0;-0.562176;0.93696;0.0;-0.562176;0.93696;0.0;-0.562176;0.93696;0.0;-0.562176;0.93696;0.0;-0.562176;0.93696;0.0;-0.562176;0.93696;0.0;-0.562176;0.93696;0.0;-0.562176;0.93696;0.0;-0.562176;0.93696;0.0;-0.374784;0.93696;0.0;-0.562176;0.93696;0.0;-0.562176;0.749568;0.187392;-0.562176;0.749568;0.0;-0.562176;0.749568;0.0;-0.562176;0.0;-35.84;-17.92;17.92;-17.92;-17.92;17.92;-17.92;-17.92;17.92;-17.92;-17.92;17.92;-17.92;0.0;17.92;-17.92;0.0;17.92;-17.92;0.0;0.0;-17.92;0.0;0.0;0.0;0.0;0.0;0.0;0.0;0.0;0.0;0.0;0.0;0.0;0.0;0.0;0.0;0.0;0.0;0.0;0.0;0.0;17.92;0.0;0.0;17.92;0.0;0.0;35.84;0.0;17.92;35.84;0.0;17.92;53.760000000000005;0.0;17.92;53.760000000000005;17.92;3.56352;1.4848;1.18784;3.56352;1.4848;1.18784;3.56352;1.4848;1.03936;3.56352;1.4848;1.03936;3.56352;1.4848;1.03936;3.56352;1.4848;1.03936;3.56352;1.4848;1.03936;3.56352;1.63328;0.89088;3.56352;1.63328;0.89088;3.56352;1.63328;0.89088;3.56352;1.4848;1.03936;3.56352;1.63328;0.89088;3.56352;1.63328;0.89088;3.56352;1.63328;0.89088;3.56352;1.63328;0.89088;3.56352;1.63328;0.89088;3.56352;1.63328;0.89088;3.56352;1.63328;1.03936;3.56352;1.63328;1.03936;3.56352;1.4848;1.03936
1728658358000;0;25.4;0;255;255;false;73;42.5382132;42.5381112;42.538009200000005;42.53790720000001;42.53780520000001;42.53770320000001;42.53760120000001;42.53749920000001;42.537397200000015;42.53729520000002;-147.1342886;-147.1341864;-147.13408420000002;-147.13398200000003;-147.13387980000005;-147.13377760000006;-147.13367540000007;-147.1335732000001;-147.1334710000001;-147.1333688000001;0.0;0.0;0.0;0.0;0.0;0.0;0.0;0.0;0.0;0.0;0.749568;0.0;-0.562176;0.749568;0.187392;-0.562176;0.749568;0.187392;-0.562176;0.749568;0.187392;-0.562176;0.749568;0.187392;-0.562176;0.749568;0.187392;-0.562176;0.749568;0.187392;-0.562176;0.749568;0.187392;-0.562176;0.749568;0.187392;-0.562176;0.749568;0.187392;-0.562176;0.562176;0.187392;-0.562176;0.562176;0.187392;-0.562176;0.562176;0.187392;-0.562176;0.749568;0.187392;-0.562176;0.749568;0.187392;-0.749568;0.749568;0.187392;-0.562176;0.749568;0.187392;-0.562176;0.562176;0.187392;-0.562176;0.562176;0.187392;-0.562176;0.562176;0.187392;-0.374784;0.374784;0.187392;-0.374784;0.374784;0.187392;-0.562176;0.374784;0.187392;-0.562176;0.187392;0.187392;-0.562176;0.187392;0.187392;-0.749568;0.374784;0.187392;-0.749568;0.374784;0.187392;-0.749568;0.374784;0.374784;-0.749568;0.374784;0.187392;-0.749568;0.187392;0.187392;-0.749568;0.187392;0.187392;-0.749568;0.187392;0.187392;-0.749568;0.0;0.187392;-0.749568;0.0;0.187392;-0.749568;0.0;0.187392;-0.749568;0.0;0.187392;-0.93696;0.0;0.374784;-0.93696;0.0;0.374784;-0.93696;0.0;0.187392;-0.93696;-0.187392;0.187392;-0.93696;-0.187392;0.187392;-0.93696;-0.187392;0.187392;-0.93696;0.0;0.187392;-0.93696;0.0;0.374784;-0.93696;0.0;0.374784;-0.93696;-0.187392;0.374784;-0.93696;-0.187392;0.374784;-0.93696;-0.187392;0.374784;-0.93696;-0.187392;0.187392;-0.93696;-0.374784;0.374784;-0.93696;-0.374784;0.374784;-0.93696;-0.374784;0.374784;-1.124352;-0.374784;0.374784;-1.124352;-0.374784;0.562176;-1.124352;-0.374784;0.562176;-0.93696;-0.187392;0.562176;-0.93696;-0.374784;0.562176;-1.124352;-0.374784;0.562176;-0.93696;-0.374784;0.562176;-0.93696;-0.374784;0.562176;-0.93696;-0.374784;0.562176;-1.124352;-0.374784;0.562176;-1.124352;-0.374784;0.562176;-1.124352;-0.374784;0.562176;-0.93696;-0.374784;0.562176;-0.93696;-0.374784;0.562176;-0.93696;-0.374784;0.562176;-0.93696;-0.374784;0.562176;-0.93696;-0.374784;0.562176;-0.93696;-0.374784;0.562176;-0.93696;-0.374784;0.562176;-0.93696;-0.374784;0.562176;-0.93696;-0.562176;0.562176;-0.93696;-0.562176;0.562176;-0.93696;-0.562176;0.562176;-0.93696;-0.562176;0.562176;-0.93696;-0.562176;0.562176;-0.93696;-0.562176;0.749568;-1.124352;-0.562176;0.749568;-1.124352;-0.562176;0.749568;-1.124352;17.92;53.760000000000005;17.92;17.92;53.760000000000005;17.92;17.92;53.760000000000005;17.92;35.84;71.68;17.92;17.92;89.60000000000001;17.92;0.0;107.52000000000001;35.84;0.0;125.44000000000001;35.84;0.0;125.44000000000001;17.92;17.92;125.44000000000001;17.92;17.92;125.44000000000001;17.92;17.92;107.52000000000001;17.92;17.92;89.60000000000001;0.0;35.84;89.60000000000001;0.0;53.760000000000005;71.68;0.0;35.84;53.760000000000005;0.0;35.84;53.760000000000005;0.0;17.92;35.84;0.0;17.92;35.84;0.0;17.92;17.92;0.0;17.92;17.92;0.0;3.56352;1.63328;1.18784;3.56352;1.4848;1.33632;3.56352;1.4848;1.33632;3.41504;1.4848;1.33632;3.56352;1.4848;1.4848;3.41504;1.4848;1.63328;3.41504;1.4848;1.78176;3.26656;1.33632;1.93024;3.26656;1.33632;2.07872;3.11808;1.33632;2.2272;3.11808;1.33632;2.37568;2.9696;1.33632;2.52416;2.9696;1.33632;2.52416;2.82112;1.33632;2.52416;2.82112;1.33632;2.52416;2.82112;1.18784;2.67264;2.82112;1.18784;2.52416;2.67264;1.18784;2.52416;2.67264;1.18784;2.52416;2.67264;1.18784;2.52416
1728658359000;0;25.4;0;255;255;false;73;41.1943987;41.1945009;41.1943989;41.194296900000005;41.19419490000001;41.19409290000001;41.19399090000001;41.19388890000001;41.19378690000001;41.193889100000014;-146.5903929;-146.59029070000003;-146.59018850000004;-146.59008630000005;-146.58998410000007;-146.58988190000008;-146.5897797000001;-146.5896775000001;-146.58957530000012;-146.58967730000012;0.0;0.0;0.0;0.0;0.0;0.0;0.0;0.0;0.0;0.0;-0.562176;0.749568;-1.124352;-0.562176;0.749568;-1.124352;-0.562176;0.749568;-1.124352;-0.562176;0.749568;-0.93696;-0.562176;0.562176;-0.93696;-0.562176;0.562176;-0.93696;-0.562176;0.562176;-1.124352;-0.562176;0.749568;-0.93696;-0.562176;0.749568;-0.93696;-0.562176;0.749568;-1.124352;-0.562176;0.749568;-0.93696;-0.562176;0.562176;-0.93696;-0.562176;0.562176;-0.93696;-0.562176;0.562176;-0.93696;-0.562176;0.562176;-0.93696;-0.562176;0.562176;-0.93696;-0.562176;0.562176;-0.93696;-0.374784;0.562176;-0.93696;-0.374784;0.562176;-0.93696;-0.374784;0.562176;-0.93696;-0.374784;0.562176;-0.93696;-0.374784;0.562176;-0.93696;-0.374784;0.562176;-0.93696;-0.374784;0.374784;-0.93696;-0.374784;0.374784;-0.93696;-0.374784;0.374784;-0.93696;-0.374784;0.374784;-0.93696;-0.374784;0.374784;-0.93696;-0.374784;0.374784;-0.93696;-0.187392;0.374784;-0.93696;-0.187392;0.374784;-0.93696;-0.187392;0.374784;-0.93696;-0.187392;0.374784;-0.93696;-0.187392;0.374784;-0.93696;-0.187392;0.374784;-0.93696;-0.187392;0.374784;-0.93696;-0.187392;0.187392;-0.93696;-0.187392;0.187392;-0.93696;-0.187392;0.187392;-0.93696;0.0;0.187392;-0.93696;0.0;0.187392;-0.93696;0.0;0.187392;-0.93696;0.0;0.187392;-0.93696;0.0;0.187392;-0.93696;0.0;0.0;-0.749568;0.187392;0.0;-0.749568;0.187392;0.0;-0.749568;0.187392;0.0;-0.749568;0.187392;0.0;-0.749568;0.187392;0.0;-0.749568;0.187392;0.0;-0.749568;0.187392;0.0;-0.749568;0.374784;0.0;-0.749568;0.374784;0.0;-0.749568;0.374784;0.0;-0.562176;0.374784;0.0;-0.562176;0.374784;0.0;-0.562176;0.562176;0.0;-0.562176;0.562176;0.0;-0.562176;0.562176;0.0;-0.562176;0.562176;0.0;-0.562176;0.562176;0.0;-0.562176;0.562176;0.0;-0.562176;0.562176;0.0;-0.562176;0.749568;0.0;-0.562176;0.749568;0.0;-0.562176;0.749568;0.0;-0.562176;0.749568;0.0;-0.562176;0.749568;0.0;-0.562176;0.749568;0.0;-0.562176;0.749568;0.0;-0.562176;0.749568;0.0;-0.562176;0.749568;0.0;-0.562176;0.749568;0.0;-0.562176;0.749568;0.0;-0.562176;0.749568;0.0;-0.562176;0.93696;0.0;-0.374784;0.93696;0.0;-0.374784;0.93696;0.0;-0.374784;0.93696;0.0;-0.374784;0.0;0.0;0.0;-17.92;0.0;0.0;-17.92;-17.92;0.0;-17.92;-35.84;0.0;-17.92;-53.760000000000005;0.0;-35.84;-53.760000000000005;0.0;-35.84;-71.68;0.0;-35.84;-89.60000000000001;-17.92;-35.84;-89.60000000000001;-17.92;-53.760000000000005;-107.52000000000001;-17.92;-35.84;-107.52000000000001;-17.92;-35.84;-125.44000000000001;-35.84;-17.92;-125.44000000000001;-35.84;-17.92;-125.44000000000001;-35.84;0.0;-125.44000000000001;-53.760000000000005;0.0;-125.44000000000001;-53.760000000000005;0.0;-107.52000000000001;-53.760000000000005;0.0;-89.60000000000001;-53.760000000000005;0.0;-71.68;-35.84;0.0;-71.68;-35.84;2.67264;1.18784;2.52416;2.67264;1.18784;2.52416;2.67264;1.18784;2.67264;2.67264;1.18784;2.67264;2.67264;1.18784;2.52416;2.67264;1.18784;2.67264;2.82112;1.33632;2.67264;2.82112;1.33632;2.52416;2.9696;1.33632;2.52416;2.9696;1.33632;2.52416;3.11808;1.33632;2.37568;3.11808;1.33632;2.2272;3.26656;1.4848;2.07872;3.26656;1.4848;2.07872;3.41504;1.4848;1.93024;3.56352;1.4848;1.63328;3.56352;1.63328;1.4848;3.56352;1.63328;1.18784;3.56352;1.78176;1.03936;3.56352;1.78176;0.89088
1728658360000;0;25.4;0;255;255;false;73;42.8931115;42.893213700000004;42.893315900000005;42.893418100000005;42.893520300000006;42.893622500000006;42.89372470000001;42.89382690000001;42.89392910000001;42.89403130000001;-147.2705106;-147.2706126;-147.2707146;-147.2708166;-147.2709186;-147.27102059999999;-147.27112259999998;-147.27122459999998;-147.27132659999998;-147.27142859999998;0.0;0.0;0.0;0.0;0.0;0.0;0.0;0.0;0.0;0.0;0.93696;0.0;-0.374784;0.93696;0.0;-0.374784;0.93696;0.0;-0.374784;0.93696;0.0;-0.374784;0.93696;0.0;-0.374784;0.93696;0.0;-0.374784;0.93696;0.0;-0.374784;0.93696;0.0;-0.374784;0.93696;0.0;-0.374784;0.93696;0.0;-0.374784;0.93696;0.0;-0.374784;0.93696;0.0;-0.374784;0.93696;0.0;-0.374784;0.93696;0.0;-0.374784;0.93696;0.0;-0.374784;0.93696;0.0;-0.374784;0.93696;0.0;-0.374784;0.93696;0.0;-0.374784;0.93696;0.0;-0.374784;0.93696;0.0;-0.374784;0.93696;0.0;-0.374784;0.93696;0.0;-0.374784;0.93696;0.0;-0.374784;0.93696;0.0;-0.374784;0.93696;0.0;-0.374784;0.93696;0.0;-0.374784;0.93696;0.0;-0.374784;0.93696;0.0;-0.374784;0.93696;-0.187392;-0.374784;0.93696;0.0;-0.374784;0.93696;0.0;-0.374784;0.93696;0.0;-0.374784;0.93696;0.0;-0.374784;0.93696;0.0;-0.374784;0.93696;0.0;-0.374784;0.93696;0.0;-0.374784;0.93696;0.0;-0.374784;0.93696;0.0;-0.374784;0.93696;0.0;-0.374784;0.93696;0.0;-0.374784;0.93696;0.0;-0.374784;0.93696;-0.187392;-0.374784;0.93696;0.0;-0.374784;0.93696;0.0;-0.374784;0.93696;0.0;-0.374784;0.93696;0.0;-0.374784;0.93696;0.0;-0.374784;0.93696;0.0;-0.374784;0.93696;0.0;-0.374784;0.93696;0.0;-0.374784;0.93696;0.0;-0.374784;0.93696;0.0;-0.374784;0.93696;0.0;-0.374784;0.93696;0.0;-0.374784;0.93696;0.0;-0.374784;0.93696;0.0;-0.374784;0.93696;0.0;-0.374784;0.93696;0.0;-0.374784;0.93696;0.0;-0.374784;0.93696;0.0;-0.374784;0.93696;0.0;-0.374784;0.93696;0.0;-0.374784;0.93696;0.0;-0.374784;0.93696;0.0;-0.374784;0.93696;0.0;-0.374784;0.93696;0.0;-0.374784;0.93696;0.0;-0.374784;0.93696;0.0;-0.374784;0.93696;0.0;-0.374784;0.93696;0.0;-0.374784;0.93696;0.0;-0.374784;0.93696;0.0;-0.374784;0.93696;0.0;-0.374784;0.93696;0.0;-0.374784;0.93696;0.0;-0.374784;0.93696;0.0;-0.374784;0.93696;0.0;-0.374784;0.93696;0.0;-0.374784;0.93696;0.0;-0.374784;0.93696;0.0;-0.374784;0.0;-53.760000000000005;-35.84;0.0;-53.760000000000005;-35.84;0.0;-35.84;-17.92;0.0;-35.84;-17.92;-17.92;-17.92;-17.92;-17.92;-17.92;0.0;-17.92;-17.92;0.0;-17.92;0.0;0.0;-17.92;0.0;0.0;-17.92;0.0;0.0;-17.92;0.0;0.0;-17.92;0.0;17.92;-17.92;0.0;17.92;0.0;17.92;17.92;0.0;17.92;17.92;0.0;17.92;0.0;0.0;17.92;0.0;0.0;0.0;0.0;0.0;0.0;0.0;0.0;0.0;0.0;3.56352;1.78176;0.89088;3.56352;1.78176;0.7424;3.56352;1.78176;0.7424;3.56352;1.78176;0.59392;3.56352;1.78176;0.59392;3.56352;1.93024;0.59392;3.56352;1.93024;0.44544;3.56352;1.93024;0.59392;3.56352;1.78176;0.59392;3.56352;1.93024;0.59392;3.56352;1.78176;0.59392;3.56352;1.78176;0.59392;3.56352;1.78176;0.59392;3.56352;1.78176;0.59392;3.56352;1.78176;0.59392;3.56352;1.78176;0.59392;3.56352;1.78176;0.59392;3.56352;1.78176;0.59392;3.56352;1.78176;0.59392;3.56352;1.78176;0.59392
1728658361000;0;25.4;0;255;255;false;73;46.6917602;46.6918624;46.6919646;46.6920668;46.692169;46.6922712;46.6923734;46.6924756;46.6925778;46.69268;-148.951313;-148.9512108;-148.95110860000003;-148.95121060000002;-148.95131260000002;-148.95141460000002;-148.95151660000002;-148.95161860000002;-148.95172060000002;-148.9518226;0.0;0.0;0.0;0.0;0.0;0.0;0.0;0.0;0.0;0.0;0.93696;0.0;-0.374784;0.93696;0.0;-0.374784;0.93696;0.0;-0.374784;0.93696;0.0;-0.374784;0.93696;0.0;-0.374784;0.93696;0.0;-0.374784;0.93696;0.0;-0.374784;0.93696;0.0;-0.374784;0.93696;0.0;-0.374784;0.93696;0.0;-0.374784;0.93696;0.0;-0.374784;0.93696;0.0;-0.374784;0.93696;0.0;-0.374784;0.93696;0.0;-0.374784;0.93696;0.0;-0.562176;0.749568;0.0;-0.562176;0.749568;0.0;-0.562176;0.749568;0.0;-0.562176;0.93696;0.0;-0.374784;0.93696;0.0;-0.374784;0.93696;0.0;-0.374784;0.93696;0.0;-0.374784;0.93696;0.0;-0.374784;0.93696;0.0;-0.374784;0.93696;0.0;-0.374784;0.93696;0.0;-0.374784;0.93696;0.0;-0.374784;0.93696;0.0;-0.374784;0.93696;0.0;-0.374784;0.93696;0.0;-0.374784;0.93696;0.0;-0.374784;0.93696;0.0;-0.374784;0.93696;0.0;-0.374784;0.93696;0.0;-0.374784;0.93696;0.0;-0.374784;0.93696;0.0;-0.374784;0.93696;0.0;-0.374784;0.93696;0.0;-0.374784;0.93696;0.0;-0.374784;0.93696;0.0;-0.374784;0.93696;0.0;-0.374784;0.93696;0.0;-0.374784;0.93696;0.0;-0.374784;0.93696;0.0;-0.374784;0.93696;0.0;-0.374784;0.93696;0.0;-0.374784;0.93696;-0.187392;-0.374784;0.93696;-0.187392;-0.374784;0.93696;-0.187392;-0.374784;0.93696;-0.187392;-0.374784;0.93696;-0.187392;-0.374784;0.93696;-0.187392;-0.374784;0.93696;-0.187392;-0.374784;0.93696;-0.187392;-0.374784;0.93696;-0.187392;-0.374784;0.93696;-0.187392;-0.374784;0.93696;-0.187392;-0.374784;0.93696;-0.187392;-0.374784;0.93696;-0.187392;-0.374784;0.93696;-0.187392;-0.374784;0.93696;-0.187392;-0.374784;0.93696;-0.187392;-0.374784;0.93696;-0.187392;-0.374784;0.93696;-0.187392;-0.374784;0.93696;-0.187392;-0.374784;0.93696;-0.187392;-0.374784;0.93696;-0.187392;-0.374784;0.93696;-0.187392;-0.374784;0.93696;-0.187392;-0.374784;0.93696;0.0;-0.374784;0.93696;0.0;-0.374784;0.93696;0.0;-0.374784;0.93696;0.0;-0.374784;0.93696;0.0;-0.374784;0.93696;0.0;-0.374784;0.93696;0.0;-0.374784;0.93696;0.0;-0.374784;0.93696;0.0;-0.374784;0.93696;0.0;-0.374784;0.93696;0.0;-0.374784;17.92;17.92;0.0;0.0;17.92;0.0;0.0;17.92;0.0;0.0;0.0;0.0;0.0;0.0;0.0;0.0;0.0;0.0;0.0;0.0;0.0;-17.92;0.0;0.0;-17.92;0.0;0.0;-17.92;0.0;0.0;0.0;0.0;0.0;0.0;0.0;0.0;0.0;0.0;0.0;0.0;0.0;0.0;0.0;0.0;0.0;17.92;0.0;-17.92;35.84;0.0;-17.92;53.760000000000005;0.0;-17.92;53.760000000000005;0.0;-17.92;71.68;0.0;-17.92;3.56352;1.78176;0.59392;3.56352;1.78176;0.7424;3.56352;1.78176;0.7424;3.56352;1.78176;0.7424;3.56352;1.78176;0.7424;3.56352;1.78176;0.7424;3.56352;1.78176;0.7424;3.56352;1.78176;0.7424;3.56352;1.78176;0.7424;3.56352;1.78176;0.7424;3.56352;1.78176;0.59392;3.56352;1.78176;0.7424;3.56352;1.78176;0.7424;3.56352;1.78176;0.59392;3.56352;1.78176;0.7424;3.56352;1.78176;0.59392;3.56352;1.78176;0.7424;3.56352;1.78176;0.7424;3.56352;1.78176;0.59392;3.56352;1.93024;0.59392
1728658362000;0;25.4;0;255;255;false;73;47.5135931;47.5136739;47.5135719;47.513469900000004;47.513367900000006;47.51326590000001;47.51316390000001;47.51306190000001;47.51295990000001;47.512857900000014;-149.3428628;-149.34276060000002;-149.34265840000003;-149.34255620000005;-149.34245400000006;-149.34235180000007;-149.3422496000001;-149.3421474000001;-149.34204520000011;-149.34194300000013;0.0;0.0;0.0;0.0;0.0;0.0;0.0;0.0;0.0;0.0;0.93696;0.0;-0.374784;0.93696;0.0;-0.374784;0.93696;0.0;-0.374784;0.93696;0.0;-0.374784;0.93696;0.0;-0.374784;0.93696;0.0;-0.374784;0.93696;0.0;-0.374784;0.93696;0.0;-0.374784;0.93696;0.0;-0.374784;0.93696;0.0;-0.374784;0.93696;0.187392;-0.374784;0.93696;0.0;-0.374784;0.93696;0.0;-0.374784;0.93696;0.0;-0.374784;0.93696;0.0;-0.374784;0.93696;0.0;-0.374784;0.93696;0.0;-0.374784;0.93696;0.0;-0.374784;0.93696;0.0;-0.374784;0.93696;0.0;-0.374784;0.93696;0.0;-0.374784;0.93696;0.0;-0.374784;0.93696;0.0;-0.374784;0.93696;0.0;-0.374784;0.93696;0.0;-0.374784;0.93696;0.0;-0.374784;0.93696;0.0;-0.374784;0.93696;0.0;-0.374784;0.93696;0.0;-0.374784;0.93696;0.0;-0.374784;0.93696;0.0;-0.374784;0.93696;0.0;-0.374784;0.93696;0.0;-0.374784;0.93696;0.0;-0.374784;0.93696;0.0;-0.374784;0.93696;0.0;-0.374784;0.93696;0.0;-0.374784;0.93696;0.0;-0.374784;0.93696;0.0;-0.374784;0.93696;0.0;-0.374784;0.93696;0.0;-0.374784;0.93696;0.0;-0.374784;0.93696;0.0;-0.374784;0.93696;-0.187392;-0.374784;0.93696;-0.187392;-0.374784;0.93696;-0.187392;-0.374784;0.93696;-0.187392;-0.374784;0.93696;-0.187392;-0.374784;0.93696;-0.187392;-0.374784;0.93696;-0.374784;-0.374784;1.124352;-0.374784;-0.374784;1.124352;-0.187392;-0.374784;1.124352;-0.187392;-0.374784;1.124352;-0.187392;-0.374784;0.93696;-0.187392;-0.374784;0.93696;-0.187392;-0.374784;0.93696;-0.187392;-0.374784;0.93696;-0.187392;-0.374784;0.93696;-0.187392;-0.374784;0.93696;-0.187392;-0.374784;0.93696;-0.187392;-0.374784;0.93696;-0.187392;-0.187392;0.93696;-0.187392;-0.187392;0.93696;-0.187392;-0.187392;0.93696;-0.187392;-0.187392;0.93696;-0.187392;-0.187392;0.93696;-0.187392;-0.187392;0.93696;-0.187392;-0.187392;0.93696;-0.187392;-0.187392;0.93696;-0.187392;-0.187392;0.93696;-0.187392;-0.187392;0.93696;-0.187392;-0.187392;0.93696;-0.187392;-0.187392;0.93696;-0.187392;-0.187392;0.93696;0.0;-0.187392;0.93696;0.0;-0.187392;0.93696;0.0;-0.187392;0.93696;0.0;-0.187392;0.93696;0.0;-0.187392;0.93696;0.0;-0.187392;53.760000000000005;0.0;-17.92;53.760000000000005;-17.92;-17.92;53.760000000000005;-17.92;-35.84;53.760000000000005;-17.92;-35.84;53.760000000000005;-17.92;-35.84;35.84;-17.92;-35.84;53.760000000000005;-17.92;-35.84;53.760000000000005;0.0;-35.84;71.68;0.0;-17.92;71.68;0.0;-17.92;71.68;-17.92;-17.92;71.68;-17.92;-17.92;89.60000000000001;-17.92;-17.92;89.60000000000001;0.0;-17.92;89.60000000000001;-17.92;-17.92;107.52000000000001;-17.92;-17.92;107.52000000000001;0.0;-17.92;107.52000000000001;0.0;-35.84;107.52000000000001;0.0;-35.84;107.52000000000001;17.92;-35.84;3.56352;1.93024;0.59392;3.56352;1.93024;0.7424;3.56352;1.93024;0.59392;3.56352;1.93024;0.59392;3.56352;2.07872;0.59392;3.56352;2.07872;0.44544;3.56352;2.07872;0.59392;3.56352;2.2272;0.59392;3.41504;2.2272;0.59392;3.41504;2.2272;0.59392;3.56352;2.2272;0.59392;3.41504;2.37568;0.59392;3.41504;2.37568;0.59392;3.41504;2.37568;0.7424;3.41504;2.37568;0.7424;3.41504;2.37568;0.7424;3.41504;2.52416;0.7424;3.41504;2.52416;0.89088;3.41504;2.52416;1.03936;3.41504;2.52416;1.03936
1728658363000;0;25.4;0;255;255;false;73;42.899269;42.8993712;42.8994734;42.8993714;42.8992694;42.8991674;42.899065400000005;42.89896340000001;42.89886140000001;42.89896360000001;-147.2577714;-147.2578734;-147.2579754;-147.2578732;-147.25777100000002;-147.25766880000003;-147.25756660000005;-147.25746440000006;-147.25736220000007;-147.25746420000007;0.0;0.0;0.0;0.0;0.0;0.0;0.0;0.0;0.0;0.0;0.93696;0.0;-0.187392;0.93696;0.0;-0.187392;0.93696;0.0;-0.187392;0.93696;0.0;-0.187392;0.93696;0.0;-0.187392;0.93696;0.0;-0.187392;0.93696;0.0;-0.187392;0.93696;0.0;-0.187392;0.93696;0.0;-0.187392;0.93696;0.0;-0.187392;0.93696;0.0;-0.187392;0.93696;0.0;-0.187392;0.93696;0.0;-0.187392;0.93696;0.0;-0.187392;0.93696;0.0;-0.187392;0.93696;0.0;-0.187392;0.93696;0.0;-0.187392;0.93696;0.0;-0.187392;0.93696;0.0;-0.187392;0.93696;0.0;-0.374784;0.93696;0.0;-0.374784;0.93696;0.0;-0.374784;0.93696;0.0;-0.374784;0.93696;0.0;-0.374784;0.93696;0.0;-0.374784;0.93696;0.0;-0.374784;0.93696;0.0;-0.374784;0.93696;0.0;-0.374784;0.93696;0.0;-0.374784;0.93696;0.0;-0.374784;1.124352;0.0;-0.562176;1.311744;0.0;-0.374784;1.311744;0.187392;-0.374784;1.124352;0.187392;-0.374784;1.124352;0.187392;-0.374784;1.124352;0.187392;-0.374784;0.93696;0.187392;-0.374784;0.93696;0.187392;-0.562176;0.93696;0.187392;-0.562176;0.93696;0.0;-0.374784;0.93696;0.0;-0.374784;0.93696;0.0;-0.374784;0.93696;0.0;-0.374784;0.93696;0.0;-0.374784;0.93696;0.0;-0.374784;0.93696;0.187392;-0.374784;0.93696;0.187392;-0.374784;0.93696;0.187392;-0.374784;0.93696;0.187392;-0.374784;0.93696;0.187392;-0.374784;0.93696;0.187392;-0.374784;0.93696;0.187392;-0.374784;0.93696;0.187392;-0.374784;0.93696;0.0;-0.374784;0.749568;0.0;-0.374784;0.749568;0.0;-0.374784;0.749568;0.0;-0.374784;0.749568;0.0;-0.374784;0.93696;0.0;-0.374784;0.93696;0.0;-0.374784;0.93696;0.0;-0.374784;0.749568;0.0;-0.374784;0.749568;0.0;-0.374784;0.749568;0.0;-0.374784;0.749568;0.0;-0.374784;0.749568;0.0;-0.374784;0.749568;0.0;-0.374784;0.749568;0.0;-0.374784;0.749568;0.0;-0.374784;0.749568;0.0;-0.374784;0.749568;0.0;-0.374784;0.749568;0.187392;-0.374784;0.749568;0.0;-0.374784;0.749568;0.187392;-0.374784;0.749568;0.0;-0.374784;0.749568;0.0;-0.374784;0.749568;0.0;-0.374784;0.749568;0.0;-0.374784;0.749568;0.0;-0.374784;0.749568;0.0;-0.374784;89.60000000000001;17.92;-35.84;89.60000000000001;17.92;-35.84;89.60000000000001;17.92;-35.84;89.60000000000001;0.0;-17.92;71.68;0.0;-17.92;71.68;0.0;-17.92;71.68;0.0;-17.92;53.760000000000005;-17.92;-17.92;35.84;-17.92;-17.92;17.92;-17.92;0.0;17.92;-17.92;0.0;35.84;0.0;-17.92;35.84;17.92;-17.92;17.92;17.92;-17.92;35.84;17.92;-17.92;17.92;17.92;-17.92;17.92;17.92;-17.92;17.92;17.92;-17.92;0.0;0.0;0.0;0.0;0.0;0.0;3.41504;2.52416;1.18784;3.26656;2.52416;1.33632;3.26656;2.52416;1.4848;3.26656;2.52416;1.4848;3.26656;2.52416;1.63328;3.26656;2.52416;1.78176;3.26656;2.52416;1.63328;3.26656;2.52416;1.93024;3.26656;2.52416;1.93024;3.26656;2.52416;1.78176;3.26656;2.37568;1.93024;3.26656;2.52416;1.78176;3.26656;2.37568;1.93024;3.26656;2.52416;1.93024;3.26656;2.37568;1.93024;3.11808;2.37568;2.07872;3.11808;2.37568;2.07872;3.11808;2.37568;2.07872;3.11808;2.37568;2.2272;3.11808;2.52416;2.07872
1728658364000;0;25.4;0;255;255;false;73;38.9797303;38.9796283;38.9797305;38.9798327;38.9799349;38.980037100000004;38.980139300000005;38.980241500000005;38.980343700000006;38.98044590000001;-145.7285786;-145.7284764;-145.7285784;-145.7286804;-145.7287824;-145.7288844;-145.7289864;-145.7290884;-145.7291904;-145.7292924;0.0;0.0;0.0;0.0;0.0;0.0;0.0;0.0;0.0;0.0;0.93696;0.0;-0.374784;0.93696;0.0;-0.374784;0.93696;0.0;-0.374784;0.93696;0.0;-0.374784;0.93696;0.0;-0.374784;0.93696;0.0;-0.374784;0.93696;0.0;-0.374784;0.93696;0.0;-0.374784;0.93696;0.0;-0.374784;0.93696;0.0;-0.374784;0.749568;0.0;-0.374784;0.749568;0.0;-0.374784;0.749568;0.0;-0.374784;0.93696;0.187392;-0.562176;1.124352;0.0;-0.562176;1.124352;0.0;-0.562176;1.124352;0.0;-0.562176;1.124352;-0.187392;-0.562176;1.124352;-0.187392;-0.562176;1.124352;-0.187392;-0.562176;0.93696;-0.187392;-0.562176;0.93696;-0.187392;-0.562176;0.93696;-0.187392;-0.562176;0.93696;0.0;-0.562176;0.93696;0.0;-0.562176;0.93696;0.0;-0.562176;0.93696;0.0;-0.562176;0.93696;-0.187392;-0.562176;0.93696;-0.187392;-0.374784;0.93696;-0.187392;-0.374784;0.93696;-0.187392;-0.374784;0.93696;-0.187392;-0.374784;0.93696;-0.187392;-0.374784;0.93696;-0.187392;-0.374784;0.749568;-0.187392;-0.374784;0.93696;-0.187392;-0.374784;0.93696;-0.187392;-0.374784;0.93696;-0.187392;-0.374784;0.93696;-0.187392;-0.374784;0.749568;-0.187392;-0.374784;0.749568;0.0;-0.374784;0.93696;0.0;-0.374784;0.93696;0.0;-0.374784;0.93696;-0.187392;-0.374784;0.93696;-0.187392;-0.374784;0.93696;-0.187392;-0.374784;0.749568;-0.187392;-0.187392;0.93696;-0.187392;-0.187392;0.93696;-0.187392;-0.187392;0.93696;-0.187392;-0.187392;0.93696;-0.187392;-0.187392;0.93696;-0.187392;-0.187392;0.749568;-0.187392;-0.187392;0.749568;-0.187392;-0.187392;0.749568;-0.187392;-0.187392;0.749568;-0.187392;-0.187392;0.93696;-0.187392;-0.187392;0.93696;-0.187392;-0.187392;0.93696;-0.187392;-0.187392;0.93696;-0.187392;-0.374784;0.93696;-0.187392;-0.374784;0.93696;-0.187392;-0.374784;0.93696;-0.187392;-0.374784;0.93696;-0.187392;-0.374784;0.749568;-0.187392;-0.187392;0.749568;-0.187392;-0.187392;0.749568;-0.187392;-0.187392;0.749568;-0.187392;-0.187392;0.749568;-0.187392;-0.187392;0.749568;-0.187392;-0.187392;0.749568;-0.187392;-0.187392;0.749568;-0.187392;-0.187392;0.749568;-0.187392;-0.187392;0.749568;-0.187392;-0.562176;1.311744;-0.187392;-0.749568;2.061312;0.0;-0.562176;1.87392;0.187392;-0.374784;1.311744;0.187392;-0.374784;1.124352;0.374784;-0.374784;1.311744;0.187392;-0.562176;-17.92;0.0;0.0;0.0;-17.92;0.0;-17.92;-17.92;-17.92;-17.92;-17.92;0.0;-17.92;-35.84;17.92;0.0;-17.92;0.0;-17.92;-17.92;0.0;0.0;0.0;17.92;0.0;0.0;0.0;17.92;-17.92;0.0;17.92;0.0;0.0;17.92;0.0;0.0;17.92;0.0;0.0;17.92;17.92;0.0;17.92;0.0;0.0;17.92;0.0;0.0;17.92;0.0;0.0;17.92;-17.92;-17.92;17.92;-35.84;-17.92;53.760000000000005;-35.84;-17.92;3.11808;2.37568;2.2272;3.11808;2.37568;2.07872;3.11808;2.52416;2.07872;3.11808;2.52416;2.07872;3.11808;2.52416;2.07872;3.11808;2.52416;1.93024;3.11808;2.52416;1.93024;3.26656;2.52416;1.93024;3.26656;2.52416;1.93024;3.26656;2.52416;1.93024;3.11808;2.52416;1.78176;3.26656;2.52416;1.93024;3.26656;2.52416;1.93024;3.26656;2.52416;1.93024;3.26656;2.37568;1.93024;3.26656;2.52416;2.07872;3.26656;2.37568;1.93024;3.11808;2.37568;1.93024;3.26656;2.37568;1.93024;3.11808;2.37568;1.93024
1728658365000;0;25.4;0;255;255;false;73;43.2635296;43.2634276;43.2633256;43.2632236;43.263121600000005;43.26301960000001;43.26291760000001;43.26281560000001;43.26271360000001;43.262611600000014;-147.3992754;-147.3991732;-147.39907100000002;-147.39896880000003;-147.39886660000005;-147.39876440000006;-147.39866220000008;-147.3985600000001;-147.3984578000001;-147.39835560000012;0.0;0.0;0.0;0.0;0.0;0.0;0.0;0.0;0.0;0.0;1.311744;0.187392;-0.374784;1.124352;0.187392;-0.374784;1.311744;0.187392;-0.374784;1.311744;0.187392;-0.562176;1.124352;0.0;-0.374784;1.124352;0.187392;-0.374784;0.93696;0.187392;-0.374784;0.93696;0.0;-0.374784;0.93696;0.187392;-0.374784;0.749568;0.0;-0.374784;0.93696;0.0;-0.374784;0.93696;0.0;-0.374784;0.93696;0.0;-0.374784;0.93696;0.0;-0.374784;0.93696;0.187392;-0.374784;0.93696;0.187392;-0.374784;0.749568;0.187392;-0.374784;0.749568;0.187392;-0.374784;0.749568;0.187392;-0.374784;0.749568;0.187392;-0.374784;0.749568;0.0;-0.374784;0.749568;0.0;-0.374784;0.749568;0.0;-0.374784;0.749568;0.0;-0.374784;0.749568;0.0;-0.374784;0.749568;0.0;-0.374784;0.749568;0.0;-0.374784;0.749568;0.0;-0.374784;0.749568;0.0;-0.374784;0.749568;0.0;-0.374784;0.749568;0.0;-0.374784;0.749568;0.0;-0.374784;0.749568;0.0;-0.374784;0.749568;0.0;-0.374784;0.749568;0.0;-0.374784;0.749568;0.0;-0.374784;0.749568;0.0;-0.374784;0.749568;0.0;-0.374784;0.749568;0.0;-0.374784;0.93696;0.0;-0.374784;0.93696;0.0;-0.374784;0.93696;0.0;-0.187392;0.93696;0.0;-0.187392;0.93696;0.0;-0.187392;0.93696;0.0;-0.187392;0.749568;0.0;-0.187392;0.749568;0.187392;-0.187392;0.749568;0.187392;-0.187392;0.93696;0.187392;-0.187392;0.93696;0.187392;-0.187392;1.124352;0.187392;-0.374784;1.311744;0.0;-0.374784;1.311744;-0.187392;-0.374784;1.311744;-0.374784;-0.374784;1.311744;-0.374784;-0.187392;1.311744;-0.187392;-0.187392;1.311744;-0.187392;-0.374784;1.311744;-0.187392;-0.374784;1.311744;0.0;-0.374784;1.311744;0.0;-0.374784;1.311744;0.0;-0.374784;1.124352;-0.187392;-0.187392;1.124352;-0.187392;-0.187392;1.124352;-0.187392;-0.187392;0.93696;0.0;-0.187392;0.93696;0.0;-0.187392;0.93696;0.0;-0.187392;0.93696;0.0;-0.187392;0.93696;0.0;-0.187392;0.93696;0.0;-0.187392;0.93696;0.0;-0.187392;0.93696;0.0;-0.187392;0.93696;0.0;-0.187392;0.93696;0.0;-0.187392;0.93696;0.0;-0.187392;0.93696;0.0;-0.187392;0.93696;0.0;-0.187392;0.93696;0.0;-0.187392;0.93696;0.0;-0.187392;0.93696;0.0;-0.187392;17.92;0.0;0.0;0.0;35.84;-17.92;0.0;35.84;0.0;0.0;35.84;0.0;0.0;35.84;0.0;-17.92;17.92;0.0;-17.92;17.92;0.0;-17.92;0.0;0.0;-17.92;0.0;0.0;0.0;-17.92;0.0;0.0;-35.84;0.0;0.0;-35.84;0.0;0.0;-71.68;17.92;0.0;-71.68;17.92;0.0;-53.760000000000005;17.92;17.92;0.0;17.92;17.92;0.0;17.92;17.92;0.0;17.92;35.84;17.92;17.92;35.84;17.92;0.0;3.26656;2.37568;1.93024;3.26656;2.37568;1.93024;3.26656;2.37568;2.07872;3.11808;2.52416;2.07872;3.11808;2.52416;2.07872;3.11808;2.37568;2.07872;3.11808;2.52416;2.07872;3.11808;2.37568;2.07872;3.11808;2.52416;2.07872;3.11808;2.52416;2.07872;3.11808;2.52416;2.07872;3.11808;2.37568;1.93024;3.26656;2.52416;1.93024;3.26656;2.52416;1.78176;3.26656;2.37568;1.78176;3.26656;2.37568;1.78176;3.26656;2.37568;1.63328;3.26656;2.37568;1.78176;3.26656;2.37568;1.78176;3.41504;2.37568;1.78176
1728658366000;0;25.4;0;255;255;false;73;38.4615249;38.4616271;38.4617293;38.4618315;38.4619337;38.462035900000004;38.462138100000004;38.462240300000005;38.462342500000005;38.462444700000006;-145.5317617;-145.5318637;-145.5319657;-145.5320677;-145.5321697;-145.5322717;-145.5323737;-145.5324757;-145.5325777;-145.5326797;0.0;0.0;0.0;0.0;0.0;0.0;0.0;0.0;0.0;0.0;0.93696;0.0;-0.187392;0.93696;0.0;-0.187392;0.93696;0.0;-0.187392;0.93696;0.0;-0.187392;0.93696;0.0;-0.187392;0.93696;0.0;-0.187392;0.93696;0.0;-0.187392;0.93696;0.0;-0.187392;0.93696;0.0;-0.187392;0.93696;0.0;-0.187392;0.93696;0.0;-0.187392;0.93696;0.0;-0.187392;0.93696;0.0;-0.187392;0.93696;0.0;-0.187392;0.93696;0.0;-0.187392;0.93696;0.0;-0.187392;0.93696;0.0;-0.187392;0.93696;0.0;-0.187392;0.93696;0.0;-0.187392;0.93696;0.0;-0.187392;0.93696;0.0;-0.187392;0.93696;0.0;-0.187392;0.93696;0.0;-0.187392;0.93696;0.0;-0.187392;0.93696;0.0;-0.187392;0.93696;0.0;-0.187392;0.93696;0.0;-0.187392;0.93696;0.0;-0.187392;1.124352;0.0;-0.187392;1.124352;0.0;-0.187392;1.124352;0.0;-0.187392;1.124352;0.187392;-0.187392;1.124352;0.187392;-0.187392;1.124352;0.187392;-0.187392;1.124352;0.187392;-0.187392;1.124352;0.187392;-0.187392;1.124352;0.187392;-0.187392;0.93696;0.0;-0.187392;0.93696;0.0;-0.187392;0.93696;0.0;-0.187392;0.93696;0.0;-0.187392;0.93696;0.0;-0.187392;0.93696;0.187392;-0.374784;0.93696;0.187392;-0.187392;0.93696;0.0;-0.187392;0.93696;0.0;-0.187392;0.93696;0.0;-0.187392;0.93696;0.187392;-0.187392;0.93696;0.187392;-0.374784;0.93696;0.187392;-0.374784;0.93696;0.187392;-0.374784;0.93696;0.187392;-0.374784;0.93696;0.187392;-0.374784;0.93696;0.187392;-0.374784;0.93696;0.187392;-0.187392;0.93696;0.187392;-0.374784;0.93696;0.187392;-0.374784;0.93696;0.187392;-0.374784;0.93696;0.187392;-0.187392;0.93696;0.187392;-0.187392;0.93696;0.187392;-0.374784;0.93696;0.187392;-0.374784;0.93696;0.187392;-0.374784;0.93696;0.187392;-0.374784;0.93696;0.187392;-0.187392;0.93696;0.187392;-0.187392;0.93696;0.187392;-0.187392;0.93696;0.187392;-0.374784;0.93696;0.187392;-0.374784;0.93696;0.187392;-0.374784;0.93696;0.187392;-0.187392;0.93696;0.187392;-0.374784;0.93696;0.187392;-0.374784;0.93696;0.187392;-0.374784;0.93696;0.187392;-0.374784;0.93696;0.187392;-0.374784;0.93696;0.187392;-0.374784;0.93696;0.187392;-0.374784;0.93696;0.187392;-0.374784;0.93696;0.187392;-0.187392;53.760000000000005;35.84;0.0;53.760000000000005;35.84;-17.92;53.760000000000005;17.92;-17.92;53.760000000000005;17.92;-17.92;35.84;17.92;-17.92;35.84;0.0;-17.92;35.84;0.0;-17.92;35.84;0.0;-17.92;17.92;-17.92;0.0;0.0;0.0;0.0;0.0;0.0;-17.92;0.0;0.0;-17.92;17.92;17.92;0.0;17.92;17.92;0.0;0.0;17.92;0.0;0.0;17.92;0.0;0.0;17.92;0.0;0.0;17.92;0.0;0.0;17.92;0.0;0.0;17.92;0.0;3.26656;2.37568;1.93024;3.26656;2.2272;1.93024;3.26656;2.2272;1.93024;3.26656;2.2272;2.07872;3.26656;2.2272;2.07872;3.26656;2.2272;2.07872;3.26656;2.2272;2.2272;3.26656;2.2272;2.07872;3.26656;2.07872;2.2272;3.26656;2.07872;2.07872;3.26656;2.2272;2.2272;3.26656;2.2272;2.2272;3.26656;2.07872;2.2272;3.26656;2.2272;2.2272;3.26656;2.2272;2.2272;3.26656;2.2272;2.2272;3.26656;2.2272;2.37568;3.26656;2.2272;2.37568;3.11808;2.2272;2.37568;3.11808;2.2272;2.37568
1728658367000;0;25.4;0;255;255;false;73;42.1858689;42.185766900000004;42.185664900000006;42.18556290000001;42.18546090000001;42.18535890000001;42.18525690000001;42.185154900000015;42.18505290000002;42.18495090000002;-146.9459222;-146.94582000000003;-146.94571780000004;-146.94561560000005;-146.94551340000007;-146.94541120000008;-146.9453090000001;-146.9452068000001;-146.94510460000012;-146.94500240000013;0.0;0.0;0.0;0.0;0.0;0.0;0.0;0.0;0.0;0.0;0.93696;0.187392;-0.187392;0.93696;0.187392;-0.187392;0.93696;0.187392;-0.187392;0.93696;0.187392;-0.187392;0.93696;0.187392;-0.187392;0.749568;0.187392;-0.187392;0.749568;0.187392;-0.187392;0.93696;0.187392;-0.187392;0.93696;0.187392;-0.187392;0.93696;0.187392;-0.187392;0.93696;0.187392;-0.187392;0.93696;0.187392;-0.187392;0.93696;0.0;-0.187392;0.93696;0.0;-0.187392;0.93696;0.0;-0.187392;0.93696;0.0;-0.187392;0.93696;0.0;-0.187392;0.93696;0.0;-0.187392;0.93696;0.0;-0.187392;0.93696;0.0;-0.187392;0.93696;0.0;-0.187392;0.93696;0.0;-0.187392;0.93696;0.0;-0.187392;0.93696;0.0;-0.187392;0.93696;0.0;-0.187392;1.124352;0.0;-0.374784;1.311744;0.0;-0.374784;1.311744;0.0;-0.374784;1.311744;-0.187392;-0.374784;1.311744;0.0;-0.374784;1.124352;0.0;-0.374784;1.124352;0.0;-0.374784;1.124352;0.0;-0.374784;0.93696;0.0;-0.374784;0.93696;0.0;-0.374784;0.93696;0.0;-0.374784;0.93696;0.0;-0.374784;0.93696;0.0;-0.374784;0.93696;0.0;-0.374784;0.93696;-0.187392;-0.374784;0.93696;-0.187392;-0.374784;0.93696;-0.187392;-0.374784;0.749568;-0.187392;-0.374784;0.93696;-0.187392;-0.374784;0.93696;-0.187392;-0.374784;0.93696;-0.187392;-0.374784;0.749568;-0.187392;-0.374784;0.749568;-0.187392;-0.374784;0.749568;-0.187392;-0.374784;0.749568;-0.187392;-0.374784;0.93696;-0.187392;-0.374784;0.93696;-0.187392;-0.374784;0.93696;0.0;-0.374784;0.93696;-0.187392;-0.374784;0.93696;-0.187392;-0.374784;0.93696;0.0;-0.374784;0.93696;0.0;-0.374784;0.93696;0.0;-0.374784;0.93696;0.0;-0.374784;0.93696;-0.187392;-0.374784;0.93696;0.0;-0.374784;0.93696;0.0;-0.374784;0.93696;0.0;-0.374784;0.93696;0.0;-0.187392;0.93696;-0.187392;-0.187392;0.93696;-0.187392;-0.187392;0.93696;-0.187392;-0.187392;0.93696;-0.187392;-0.187392;0.93696;-0.187392;-0.187392;0.93696;-0.187392;-0.187392;0.93696;0.0;-0.187392;0.93696;0.0;-0.187392;0.93696;0.0;-0.187392;0.93696;-0.187392;-0.187392;0.93696;-0.187392;-0.187392;0.93696;-0.187392;-0.187392;0.93696;-0.187392;-0.187392;0.93696;-0.187392;-0.187392;0.93696;-0.187392;-0.187392;0.93696;0.0;-0.187392;0.0;17.92;0.0;-17.92;0.0;0.0;-17.92;0.0;0.0;-17.92;0.0;0.0;-17.92;0.0;0.0;-17.92;-17.92;0.0;0.0;-17.92;0.0;17.92;-17.92;0.0;0.0;0.0;0.0;-17.92;0.0;0.0;0.0;0.0;0.0;17.92;0.0;0.0;17.92;0.0;-17.92;35.84;0.0;-17.92;35.84;0.0;-17.92;35.84;17.92;-17.92;53.760000000000005;17.92;-17.92;53.760000000000005;17.92;-17.92;53.760000000000005;17.92;-17.92;53.760000000000005;0.0;-17.92;3.11808;2.2272;2.37568;3.11808;2.07872;2.37568;3.11808;2.2272;2.37568;3.11808;2.2272;2.37568;3.11808;2.2272;2.37568;3.11808;2.2272;2.37568;3.11808;2.2272;2.37568;3.26656;2.2272;2.2272;3.26656;2.2272;2.2272;3.26656;2.2272;2.2272;3.26656;2.2272;2.2272;3.26656;2.2272;2.2272;3.26656;2.2272;2.37568;3.26656;2.2272;2.37568;3.26656;2.2272;2.37568;3.26656;2.2272;2.37568;3.26656;2.07872;2.37568;3.11808;2.07872;2.37568;3.11808;2.07872;2.37568;3.11808;2.07872;2.52416
1728658368000;0;25.4;0;255;255;false;73;36.7277165;36.7278187;36.7279209;36.7278189;36.727716900000004;36.727819100000005;36.72771710000001;36.72781930000001;36.72792150000001;36.72802370000001;-144.9144538;-144.9143516;-144.9144536;-144.91435140000002;-144.91424920000003;-144.91435120000003;-144.91424900000004;-144.91435100000004;-144.91445300000004;-144.91455500000004;0.0;0.0;0.0;0.0;0.0;0.0;0.0;0.0;0.0;0.0;0.93696;-0.187392;-0.187392;0.93696;-0.187392;-0.187392;0.93696;-0.187392;-0.187392;0.93696;-0.187392;-0.187392;0.93696;-0.187392;-0.187392;0.93696;-0.187392;-0.187392;0.93696;-0.187392;-0.187392;0.93696;-0.187392;-0.187392;0.93696;-0.187392;-0.187392;0.93696;-0.187392;-0.187392;0.93696;-0.187392;-0.187392;0.93696;-0.187392;-0.187392;0.93696;-0.187392;-0.374784;1.311744;-0.187392;-0.562176;1.499136;0.0;-0.374784;1.311744;0.0;-0.374784;1.311744;0.0;-0.374784;1.124352;0.187392;-0.374784;1.124352;0.374784;-0.374784;1.124352;0.374784;-0.562176;1.124352;0.187392;-0.562176;0.93696;0.187392;-0.374784;1.124352;0.187392;-0.374784;0.93696;0.187392;-0.374784;0.93696;0.187392;-0.374784;0.93696;0.187392;-0.374784;0.93696;0.0;-0.374784;0.93696;0.0;-0.374784;0.749568;0.187392;-0.374784;0.749568;0.187392;-0.374784;0.749568;0.0;-0.374784;0.749568;0.187392;-0.374784;0.749568;0.187392;-0.374784;0.749568;0.187392;-0.374784;0.749568;0.187392;-0.374784;0.749568;0.187392;-0.374784;0.749568;0.187392;-0.374784;0.749568;0.187392;-0.374784;0.749568;0.0;-0.374784;0.749568;0.0;-0.374784;0.749568;0.0;-0.374784;0.749568;0.187392;-0.562176;0.749568;0.187392;-0.562176;0.749568;0.187392;-0.562176;0.749568;0.187392;-0.562176;0.749568;0.187392;-0.562176;0.749568;0.187392;-0.562176;0.749568;0.187392;-0.562176;0.749568;0.187392;-0.562176;0.93696;0.187392;-0.562176;0.749568;0.187392;-0.562176;0.749568;0.187392;-0.562176;0.749568;0.187392;-0.562176;0.749568;0.187392;-0.562176;0.749568;0.187392;-0.562176;0.749568;0.187392;-0.562176;0.749568;0.187392;-0.562176;0.749568;0.187392;-0.562176;0.749568;0.187392;-0.562176;0.93696;0.187392;-0.562176;0.749568;0.187392;-0.562176;0.749568;0.187392;-0.562176;0.749568;0.0;-0.562176;0.93696;0.0;-0.562176;0.93696;0.0;-0.562176;0.749568;0.0;-0.562176;0.749568;0.0;-0.562176;0.749568;0.0;-0.562176;0.749568;0.0;-0.562176;0.749568;0.0;-0.562176;0.749568;0.0;-0.562176;0.93696;0.0;-0.562176;0.93696;0.0;-0.562176;0.93696;0.0;-0.562176;0.93696;0.0;-0.562176;0.93696;0.0;-0.562176;0.93696;0.0;-0.562176;0.93696;0.0;-0.562176;0.93696;0.0;-0.562176;0.93696;0.0;-0.562176;53.760000000000005;0.0;-17.92;53.760000000000005;0.0;-17.92;53.760000000000005;0.0;-17.92;53.760000000000005;0.0;-35.84;35.84;0.0;-35.84;17.92;0.0;0.0;0.0;17.92;0.0;17.92;17.92;0.0;17.92;17.92;0.0;17.92;17.92;0.0;17.92;17.92;0.0;17.92;17.92;0.0;17.92;17.92;0.0;0.0;0.0;0.0;0.0;0.0;0.0;0.0;0.0;0.0;0.0;0.0;0.0;0.0;0.0;0.0;0.0;0.0;17.92;0.0;0.0;17.92;3.11808;1.93024;2.52416;3.11808;1.93024;2.52416;3.26656;1.93024;2.52416;3.11808;1.93024;2.52416;3.11808;1.93024;2.52416;3.11808;1.93024;2.52416;3.26656;1.78176;2.52416;3.11808;1.78176;2.52416;3.11808;1.78176;2.52416;3.11808;1.78176;2.52416;3.11808;1.78176;2.52416;3.11808;1.78176;2.67264;3.11808;1.78176;2.52416;3.11808;1.78176;2.67264;3.11808;1.78176;2.67264;3.11808;1.78176;2.67264;3.11808;1.78176;2.67264;3.11808;1.63328;2.67264;2.9696;1.78176;2.67264;3.11808;1.78176;2.52416
1728658369000;0;25.4;9;255;255;false;73;38.9954145;38.9955167;38.995414700000005;38.99531270000001;38.99521070000001;38.99510870000001;38.99500670000001;38.99490470000001;38.99490470000001;38.994802700000015;-145.7121907;-145.71208850000002;-145.71198630000004;-145.71188410000005;-145.71178190000006;-145.71167970000008;-145.7115775000001;-145.7114753000001;-145.7114753000001;-145.71137310000012;0.0;0.0;0.0;0.0;0.0;0.0;0.0;0.0;0.0;3.528;0.93696;0.0;-0.562176;0.93696;0.0;-0.562176;0.93696;0.0;-0.562176;0.93696;0.0;-0.562176;0.93696;0.0;-0.562176;0.93696;0.0;-0.562176;0.93696;0.0;-0.562176;0.93696;0.0;-0.562176;0.93696;0.0;-0.562176;0.93696;0.0;-0.562176;0.749568;0.0;-0.562176;0.93696;0.0;-0.562176;0.93696;0.0;-0.562176;0.93696;0.0;-0.562176;0.93696;0.0;-0.562176;0.93696;0.0;-0.562176;0.93696;0.0;-0.562176;0.93696;0.0;-0.562176;0.93696;0.0;-0.374784;0.93696;0.0;-0.562176;0.93696;0.0;-0.562176;0.93696;0.0;-0.562176;0.93696;0.0;-0.562176;0.93696;0.0;-0.562176;0.93696;0.0;-0.562176;0.93696;0.0;-0.562176;0.93696;0.0;-0.562176;0.93696;0.0;-0.374784;0.93696;0.0;-0.374784;0.93696;0.0;-0.562176;0.93696;0.0;-0.374784;0.93696;0.0;-0.562176;0.93696;0.0;-0.562176;0.93696;0.0;-0.562176;0.93696;0.0;-0.374784;0.93696;0.0;-0.374784;0.93696;0.0;-0.374784;0.93696;0.0;-0.374784;0.93696;0.0;-0.562176;0.93696;0.0;-0.374784;0.93696;0.0;-0.374784;0.93696;0.0;-0.562176;0.93696;0.0;-0.374784;0.93696;0.0;-0.374784;0.93696;0.0;-0.562176;0.93696;0.0;-0.374784;0.93696;0.0;-0.562176;0.93696;0.0;-0.562176;0.93696;0.0;-0.562176;0.93696;0.0;-0.374784;0.93696;0.0;-0.374784;0.93696;0.0;-0.374784;0.93696;0.0;-0.374784;0.93696;0.0;-0.374784;0.93696;0.0;-0.562176;0.93696;0.0;-0.374784;0.93696;0.0;-0.374784;0.93696;0.0;-0.374784;0.93696;0.0;-0.562176;0.93696;0.0;-0.374784;0.93696;0.0;-0.374784;0.93696;0.0;-0.562176;0.93696;0.0;-0.562176;0.93696;0.0;-0.374784;0.93696;0.0;-0.562176;0.93696;0.0;-0.562176;0.93696;0.0;-0.562176;0.93696;0.0;-0.374784;0.93696;0.0;-0.562176;0.93696;0.0;-0.374784;0.93696;0.0;-0.374784;0.93696;0.0;-0.562176;0.93696;0.0;-0.562176;0.93696;0.0;-0.562176;0.93696;0.0;-0.562176;0.93696;0.0;-0.562176;0.93696;0.0;-0.562176;0.93696;0.0;-0.374784;0.93696;0.0;-0.374784;0.93696;0.0;-0.374784;-17.92;0.0;0.0;-17.92;0.0;0.0;0.0;0.0;0.0;0.0;0.0;0.0;0.0;0.0;0.0;0.0;0.0;0.0;0.0;0.0;0.0;0.0;0.0;0.0;0.0;0.0;0.0;0.0;0.0;0.0;0.0;0.0;0.0;0.0;0.0;0.0;0.0;0.0;0.0;0.0;0.0;0.0;0.0;0.0;0.0;0.0;0.0;0.0;0.0;0.0;0.0;0.0;0.0;0.0;0.0;0.0;0.0;0.0;0.0;0.0;2.9696;1.78176;2.52416;3.11808;1.78176;2.67264;2.9696;1.78176;2.67264;2.9696;1.78176;2.67264;3.11808;1.78176;2.67264;2.9696;1.78176;2.67264;2.9696;1.78176;2.67264;3.11808;1.78176;2.67264;3.11808;1.78176;2.67264;2.9696;1.78176;2.67264;3.11808;1.78176;2.52416;3.11808;1.78176;2.67264;3.11808;1.78176;2.67264;2.9696;1.78176;2.52416;3.11808;1.78176;2.67264;2.9696;1.78176;2.67264;3.11808;1.78176;2.67264;3.11808;1.78176;2.52416;3.11808;1.78176;2.67264;3.11808;1.78176;2.52416
1728658370000;3;18.2;1;255;255;false;73;32.9251173;32.9251173;32.9251211;32.9251223;32.9251229;32.925111099999995;32.925095299999995;32.9250839;32.925077099999996;32.925068499999995;-117.2330964;-117.2330964;-117.23310239999999;-117.2331122;-117.2331122;-117.2330748;-117.23302559999999;-117.2329846;-117.232952;-117.23291859999999;4.608;4.608;4.553;7.219;6.108;4.553;3.803;3.108;1.914;1.636;0.93696;0.0;-0.374784;0.93696;0.0;-0.374784;0.93696;0.0;-0.562176;0.93696;0.0;-0.374784;0.93696;0.0;-0.374784;0.93696;0.0;-0.374784;0.93696;0.0;-0.562176;0.93696;0.0;-0.374784;0.93696;0.0;-0.374784;0.93696;0.0;-0.374784;0.93696;0.0;-0.374784;0.93696;0.0;-0.374784;0.93696;0.0;-0.374784;0.93696;0.0;-0.374784;0.93696;0.0;-0.374784;0.93696;0.0;-0.374784;0.93696;0.0;-0.374784;0.93696;0.0;-0.374784;0.93696;0.0;-0.374784;0.93696;0.0;-0.374784;0.93696;0.0;-0.374784;0.93696;0.0;-0.374784;0.93696;0.0;-0.374784;0.93696;0.0;-0.374784;0.93696;0.0;-0.374784;0.93696;0.0;-0.374784;0.93696;0.0;-0.374784;0.93696;0.0;-0.374784;0.93696;0.0;-0.374784;0.93696;0.0;-0.374784;0.93696;0.0;-0.374784;0.93696;0.0;-0.374784;0.93696;0.0;-0.374784;0.93696;0.0;-0.374784;0.93696;0.0;-0.374784;0.93696;0.0;-0.374784;0.93696;0.0;-0.374784;0.93696;0.0;-0.374784;0.93696;0.0;-0.374784;0.93696;0.0;-0.374784;0.93696;0.0;-0.374784;0.93696;0.0;-0.374784;0.93696;0.0;-0.374784;0.93696;0.0;-0.374784;0.93696;0.0;-0.374784;0.93696;0.0;-0.374784;0.93696;0.0;-0.374784;0.93696;0.0;-0.374784;0.93696;0.0;-0.374784;0.93696;0.0;-0.374784;0.93696;0.0;-0.374784;0.93696;0.0;-0.374784;0.93696;0.0;-0.374784;0.93696;0.0;-0.374784;0.93696;0.0;-0.374784;0.93696;0.0;-0.374784;0.93696;0.0;-0.374784;0.93696;0.0;-0.374784;0.93696;0.0;-0.374784;0.93696;0.0;-0.374784;0.93696;0.0;-0.374784;0.93696;0.0;-0.374784;0.93696;0.0;-0.374784;0.93696;0.0;-0.374784;0.93696;0.0;-0.374784;0.93696;0.0;-0.374784;0.93696;0.0;-0.374784;0.93696;0.0;-0.374784;0.93696;0.0;-0.374784;0.93696;0.0;-0.374784;0.93696;0.0;-0.374784;0.93696;0.0;-0.374784;0.93696;0.0;-0.374784;0.93696;0.0;-0.374784;0.93696;0.0;-0.374784;0.93696;0.0;-0.374784;0.93696;0.0;-0.374784;0.93696;0.0;-0.374784;0.93696;0.0;-0.374784;0.93696;0.0;-0.374784;0.0;0.0;0.0;0.0;0.0;0.0;0.0;0.0;0.0;-17.92;0.0;0.0;0.0;0.0;0.0;0.0;0.0;0.0;0.0;0.0;0.0;-17.92;0.0;0.0;-17.92;0.0;0.0;-17.92;0.0;0.0;-17.92;0.0;0.0;-17.92;0.0;0.0;-17.92;0.0;0.0;-17.92;0.0;0.0;-17.92;0.0;0.0;0.0;0.0;0.0;0.0;0.0;0.0;0.0;0.0;0.0;0.0;0.0;0.0;0.0;0.0;0.0;3.11808;1.78176;2.67264;3.11808;1.78176;2.67264;3.11808;1.78176;2.67264;3.11808;1.78176;2.52416;3.11808;1.78176;2.67264;3.11808;1.78176;2.52416;3.11808;1.78176;2.67264;3.11808;1.78176;2.67264;3.11808;1.78176;2.67264;3.11808;1.78176;2.67264;3.11808;1.78176;2.67264;3.11808;1.78176;2.67264;3.11808;1.78176;2.67264;3.11808;1.93024;2.52416;3.11808;1.93024;2.67264;3.11808;1.93024;2.52416;3.11808;1.93024;2.67264;3.11808;1.93024;2.52416;3.11808;1.93024;2.52416;3.11808;1.93024;2.52416
1728658371000;3;18.2;0;255;255;false;73;32.9250626;32.925053199999994;32.92504639999999;32.92503959999999;32.92503359999999;32.92503039999999;32.92502739999999;32.92502719999999;32.92502659999999;32.92502799999999;-117.2328888;-117.23285059999999;-117.23281979999999;-117.23277199999998;-117.23272639999998;-117.23270179999997;-117.23268359999997;-117.23267999999997;-117.23268879999998;-117.23269559999997;1.172;0.617;1.256;0.811;0.144;0.172;0.256;0.117;0.089;0.2;0.93696;0.0;-0.374784;0.93696;0.0;-0.374784;0.93696;0.0;-0.374784;0.93696;0.0;-0.374784;0.93696;0.0;-0.374784;0.93696;0.0;-0.374784;0.93696;0.0;-0.374784;0.93696;0.0;-0.374784;0.93696;0.0;-0.374784;0.93696;0.0;-0.374784;0.93696;0.0;-0.374784;0.93696;0.0;-0.374784;0.93696;0.0;-0.374784;0.93696;0.0;-0.374784;0.93696;0.0;-0.374784;0.93696;0.0;-0.374784;0.93696;0.0;-0.374784;0.93696;0.0;-0.374784;0.93696;0.0;-0.374784;0.93696;0.0;-0.374784;0.93696;0.0;-0.374784;0.93696;0.0;-0.374784;0.93696;0.0;-0.374784;0.93696;0.0;-0.374784;0.93696;0.0;-0.374784;0.93696;0.0;-0.374784;0.93696;0.0;-0.374784;0.93696;0.0;-0.374784;0.93696;0.0;-0.374784;0.93696;0.0;-0.374784;0.93696;0.0;-0.374784;0.93696;0.0;-0.374784;0.93696;0.0;-0.374784;0.93696;0.0;-0.374784;0.93696;0.0;-0.374784;0.93696;0.0;-0.374784;0.93696;0.0;-0.374784;0.93696;0.0;-0.374784;0.93696;0.0;-0.374784;0.93696;0.0;-0.374784;0.93696;0.0;-0.374784;0.93696;0.0;-0.374784;0.93696;0.0;-0.374784;0.93696;0.0;-0.374784;0.93696;0.0;-0.374784;0.93696;0.0;-0.374784;0.93696;0.0;-0.374784;0.93696;0.0;-0.374784;0.93696;0.0;-0.374784;0.93696;0.0;-0.374784;0.93696;0.0;-0.374784;0.93696;0.0;-0.374784;0.93696;0.0;-0.374784;0.93696;0.0;-0.374784;0.93696;0.0;-0.374784;0.93696;0.0;-0.374784;0.93696;0.0;-0.374784;0.93696;0.0;-0.374784;0.93696;0.0;-0.374784;0.93696;0.0;-0.374784;0.93696;0.0;-0.374784;0.93696;0.0;-0.374784;0.93696;0.0;-0.562176;0.93696;0.0;-0.374784;0.93696;0.0;-0.374784;0.93696;0.0;-0.562176;0.93696;0.0;-0.562176;0.93696;0.0;-0.562176;0.93696;0.0;-0.562176;0.93696;0.0;-0.562176;0.749568;0.0;-0.562176;0.749568;0.0;-0.562176;0.749568;0.0;-0.562176;0.749568;0.0;-0.562176;0.749568;0.0;-0.562176;0.749568;0.0;-0.562176;0.749568;0.0;-0.562176;0.749568;0.0;-0.562176;0.749568;0.0;-0.562176;0.749568;0.0;-0.562176;0.0;0.0;0.0;0.0;0.0;0.0;0.0;0.0;0.0;-17.92;0.0;0.0;-17.92;0.0;0.0;-17.92;0.0;17.92;-17.92;0.0;17.92;-17.92;0.0;0.0;-17.92;0.0;0.0;-17.92;0.0;0.0;-17.92;17.92;0.0;-17.92;0.0;0.0;0.0;17.92;0.0;0.0;17.92;0.0;0.0;17.92;0.0;17.92;17.92;0.0;17.92;17.92;0.0;0.0;17.92;0.0;17.92;17.92;0.0;0.0;17.92;0.0;3.11808;1.93024;2.52416;3.11808;1.93024;2.52416;3.11808;1.93024;2.52416;3.11808;1.93024;2.52416;3.11808;1.93024;2.67264;3.11808;1.93024;2.52416;3.11808;1.93024;2.67264;3.11808;1.93024;2.52416;3.11808;1.93024;2.52416;3.11808;1.93024;2.52416;3.11808;1.93024;2.67264;3.11808;1.93024;2.67264;3.11808;1.93024;2.67264;3.11808;1.93024;2.67264;3.11808;1.93024;2.67264;3.11808;1.93024;2.67264;3.11808;1.93024;2.67264;3.11808;1.93024;2.67264;3.11808;1.93024;2.67264;2.9696;1.93024;2.82112
1728658372000;3;18.2;0;255;255;false;73;32.9250277;32.9250269;32.9250229;32.9250229;32.9250223;32.9250157;32.9250157;32.9250137;32.9250135;32.925016299999996;-117.2327091;-117.2327115;-117.2327067;-117.2326985;-117.2326913;-117.2326649;-117.2326485;-117.2326277;-117.2326155;-117.23261509999999;0.231;0.119;0.064;0.092;0.175;0.231;0.453;0.286;0.175;0.147;0.749568;0.0;-0.562176;0.749568;0.0;-0.562176;0.749568;0.0;-0.562176;0.749568;0.0;-0.562176;0.749568;0.0;-0.562176;0.749568;0.0;-0.562176;0.749568;0.0;-0.562176;0.749568;0.0;-0.562176;0.749568;0.0;-0.562176;0.749568;0.0;-0.562176;0.749568;0.0;-0.562176;0.93696;0.0;-0.562176;0.749568;0.0;-0.562176;0.749568;0.0;-0.562176;0.749568;0.0;-0.562176;0.749568;0.0;-0.562176;0.749568;0.0;-0.562176;0.749568;0.0;-0.562176;0.749568;0.0;-0.562176;0.749568;0.0;-0.562176;0.93696;0.0;-0.562176;0.93696;0.0;-0.562176;0.93696;0.0;-0.562176;0.93696;0.0;-0.562176;0.93696;0.0;-0.562176;0.749568;0.0;-0.562176;0.749568;0.0;-0.562176;0.749568;0.0;-0.562176;0.749568;0.0;-0.562176;0.749568;0.0;-0.562176;0.93696;0.0;-0.562176;0.749568;0.0;-0.562176;0.749568;0.0;-0.562176;0.749568;0.0;-0.562176;0.93696;0.0;-0.374784;0.93696;0.0;-0.562176;0.93696;0.0;-0.562176;0.93696;0.0;-0.374784;0.93696;0.0;-0.374784;0.749568;0.0;-0.374784;0.93696;0.0;-0.374784;0.93696;0.0;-0.374784;0.93696;0.0;-0.374784;0.93696;0.0;-0.374784;0.93696;0.0;-0.374784;0.93696;0.0;-0.374784;0.93696;0.0;-0.374784;0.93696;0.0;-0.374784;0.93696;0.0;-0.374784;0.93696;0.0;-0.374784;0.93696;0.0;-0.374784;0.93696;0.0;-0.374784;0.93696;0.0;-0.374784;0.93696;0.0;-0.374784;0.93696;0.0;-0.374784;0.93696;0.0;-0.374784;0.93696;0.0;-0.374784;0.93696;0.0;-0.374784;0.93696;0.0;-0.374784;0.93696;0.0;-0.374784;0.93696;0.0;-0.374784;0.93696;0.0;-0.374784;0.93696;0.0;-0.374784;0.93696;0.0;-0.374784;0.93696;0.0;-0.374784;0.93696;0.0;-0.374784;0.93696;0.0;-0.374784;0.93696;0.0;-0.374784;0.93696;0.0;-0.374784;0.93696;0.0;-0.374784;0.93696;0.0;-0.374784;0.93696;0.0;-0.374784;0.93696;0.0;-0.374784;0.93696;0.0;-0.374784;0.93696;0.0;-0.374784;0.93696;0.0;-0.374784;0.93696;0.0;-0.374784;0.93696;0.0;-0.374784;0.93696;0.0;-0.374784;0.93696;0.0;-0.374784;0.0;17.92;0.0;-17.92;0.0;0.0;-17.92;0.0;0.0;-17.92;0.0;17.92;-17.92;-17.92;0.0;-17.92;-17.92;0.0;0.0;0.0;0.0;0.0;-17.92;0.0;0.0;-17.92;0.0;0.0;-17.92;0.0;-17.92;-17.92;0.0;-17.92;-17.92;0.0;-17.92;0.0;0.0;-17.92;-17.92;0.0;0.0;0.0;0.0;0.0;0.0;0.0;0.0;0.0;0.0;0.0;0.0;0.0;0.0;0.0;0.0;0.0;0.0;0.0;2.9696;1.93024;2.82112;2.9696;1.93024;2.82112;2.9696;1.93024;2.82112;2.9696;1.93024;2.82112;2.9696;1.93024;2.82112;2.9696;1.93024;2.82112;2.9696;1.93024;2.67264;2.9696;1.93024;2.67264;2.9696;1.93024;2.67264;3.11808;1.93024;2.67264;3.11808;1.93024;2.67264;3.11808;1.93024;2.67264;3.11808;2.07872;2.52416;3.11808;2.07872;2.52416;3.11808;1.93024;2.52416;3.11808;2.07872;2.52416;3.11808;2.07872;2.52416;3.11808;2.07872;2.52416;3.11808;2.07872;2.52416;3.11808;1.93024;2.52416
1728658373000;3;18.1;0;255;255;false;73;32.9250151;32.925014700000006;32.9250127;32.925011100000006;32.92501010000001;32.92501090000001;32.92500850000001;32.92500790000001;32.92500850000001;32.92500850000001;-117.2326079;-117.23258290000001;-117.23254870000001;-117.2325155;-117.2324871;-117.2324567;-117.2324371;-117.2324209;-117.23240489999999;-117.23240069999999;0.167;0.139;0.056;0.056;0.083;0.028;0.083;0.083;0.083;0.167;0.93696;0.0;-0.374784;0.93696;0.0;-0.374784;0.93696;0.0;-0.374784;0.93696;0.0;-0.374784;0.93696;0.0;-0.374784;0.93696;0.0;-0.374784;0.93696;0.0;-0.374784;0.93696;0.0;-0.374784;0.93696;0.0;-0.374784;0.93696;0.0;-0.374784;0.93696;0.0;-0.374784;0.93696;0.0;-0.374784;0.93696;0.0;-0.374784;0.93696;0.0;-0.374784;0.93696;0.0;-0.374784;0.93696;0.0;-0.374784;0.93696;0.0;-0.374784;0.93696;0.0;-0.374784;0.93696;0.0;-0.374784;0.93696;0.0;-0.374784;0.93696;0.0;-0.374784;0.93696;0.0;-0.374784;0.93696;0.0;-0.374784;0.93696;0.0;-0.374784;0.93696;0.0;-0.374784;0.93696;0.0;-0.374784;0.93696;0.0;-0.374784;0.93696;0.0;-0.374784;0.93696;0.0;-0.374784;0.93696;0.0;-0.374784;0.93696;0.0;-0.374784;0.93696;0.0;-0.374784;0.93696;0.0;-0.374784;0.93696;0.0;-0.374784;0.93696;0.0;-0.374784;0.93696;0.0;-0.374784;0.93696;0.0;-0.374784;0.93696;0.0;-0.374784;0.93696;0.0;-0.374784;0.93696;0.0;-0.374784;0.93696;0.0;-0.374784;0.93696;0.0;-0.374784;0.93696;0.0;-0.374784;0.93696;0.0;-0.374784;0.93696;0.0;-0.374784;0.93696;0.0;-0.374784;0.93696;0.0;-0.374784;0.93696;0.0;-0.374784;0.93696;0.0;-0.374784;0.93696;0.0;-0.374784;0.93696;0.0;-0.374784;0.93696;0.0;-0.374784;0.93696;0.0;-0.374784;0.93696;0.0;-0.374784;0.93696;0.0;-0.374784;0.93696;0.0;-0.374784;0.93696;0.0;-0.374784;0.93696;0.0;-0.374784;0.93696;0.0;-0.374784;0.93696;0.0;-0.374784;0.93696;0.0;-0.374784;0.93696;0.0;-0.374784;0.93696;0.0;-0.374784;0.93696;0.0;-0.374784;0.93696;0.0;-0.374784;0.93696;0.0;-0.374784;0.93696;0.0;-0.374784;0.93696;0.0;-0.374784;0.93696;0.0;-0.374784;0.93696;0.0;-0.374784;0.93696;0.0;-0.374784;0.93696;0.0;-0.374784;0.93696;0.0;-0.374784;0.93696;0.0;-0.374784;0.93696;0.0;-0.374784;0.93696;0.0;-0.374784;0.93696;0.0;-0.374784;0.93696;0.0;-0.374784;0.93696;0.0;-0.374784;0.93696;0.0;-0.374784;0.0;0.0;0.0;0.0;0.0;0.0;0.0;0.0;0.0;0.0;0.0;0.0;0.0;0.0;0.0;0.0;0.0;-17.92;17.92;0.0;0.0;0.0;0.0;0.0;17.92;0.0;0.0;0.0;0.0;0.0;0.0;0.0;0.0;17.92;0.0;0.0;17.92;0.0;0.0;0.0;0.0;0.0;0.0;0.0;0.0;0.0;0.0;0.0;0.0;0.0;0.0;0.0;0.0;0.0;0.0;0.0;0.0;0.0;0.0;0.0;3.11808;2.07872;2.52416;3.11808;2.07872;2.52416;3.11808;2.07872;2.52416;3.11808;2.07872;2.67264;3.11808;2.07872;2.67264;3.11808;2.07872;2.67264;3.11808;2.07872;2.52416;3.11808;1.93024;2.52416;3.11808;2.07872;2.52416;3.11808;2.07872;2.52416;3.11808;1.93024;2.67264;3.11808;1.93024;2.67264;3.11808;1.93024;2.52416;3.11808;1.93024;2.67264;3.11808;1.93024;2.52416;3.11808;1.93024;2.52416;3.11808;1.93024;2.52416;3.11808;1.93024;2.67264;3.11808;1.93024;2.67264;3.11808;1.93024;2.52416
1728658374000;3;18.1;0;255;255;false;73;32.9250087;32.9250089;32.925009100000004;32.925011700000006;32.92501310000001;32.92501490000001;32.92501510000001;32.92501750000001;32.92501710000001;32.925016700000015;-117.2323982;-117.232405;-117.2324126;-117.2324224;-117.232434;-117.2324454;-117.2324578;-117.232471;-117.2324806;-117.2324904;0.114;0.142;0.169;0.253;0.197;0.253;0.253;0.308;0.225;0.197;0.93696;0.0;-0.374784;0.93696;0.0;-0.374784;0.93696;0.0;-0.374784;0.93696;0.0;-0.374784;0.93696;0.0;-0.374784;0.93696;0.0;-0.374784;0.93696;0.0;-0.374784;0.93696;0.0;-0.374784;0.93696;0.0;-0.374784;0.93696;0.0;-0.374784;0.93696;0.0;-0.374784;0.93696;0.0;-0.374784;0.93696;0.0;-0.374784;0.93696;0.0;-0.374784;0.93696;0.0;-0.374784;0.93696;0.0;-0.374784;0.93696;0.0;-0.374784;0.93696;0.0;-0.374784;0.93696;0.0;-0.374784;0.93696;0.0;-0.374784;0.93696;0.0;-0.374784;0.93696;0.0;-0.374784;0.93696;0.0;-0.374784;0.93696;0.0;-0.374784;0.93696;0.0;-0.374784;0.93696;0.0;-0.374784;0.93696;0.0;-0.374784;0.93696;0.0;-0.374784;0.93696;0.0;-0.374784;0.93696;0.0;-0.374784;0.93696;0.0;-0.374784;0.93696;0.0;-0.374784;0.93696;0.0;-0.374784;0.93696;0.0;-0.374784;0.93696;0.0;-0.374784;0.93696;0.0;-0.374784;0.93696;0.0;-0.374784;0.93696;0.0;-0.374784;0.93696;0.0;-0.374784;0.93696;0.0;-0.374784;0.93696;0.0;-0.374784;0.93696;0.0;-0.374784;0.93696;0.0;-0.374784;0.93696;0.0;-0.374784;0.93696;0.0;-0.374784;0.93696;0.0;-0.374784;0.93696;0.0;-0.374784;0.93696;0.0;-0.374784;0.93696;0.0;-0.374784;0.93696;0.0;-0.374784;0.93696;0.0;-0.374784;0.93696;0.0;-0.374784;0.93696;0.0;-0.374784;0.93696;0.0;-0.374784;0.93696;0.0;-0.374784;0.93696;0.0;-0.374784;0.93696;0.0;-0.374784;0.93696;0.0;-0.374784;0.93696;0.0;-0.374784;0.93696;0.0;-0.374784;0.93696;0.0;-0.374784;0.93696;0.0;-0.374784;0.93696;0.0;-0.374784;0.93696;0.0;-0.374784;0.93696;0.0;-0.374784;0.93696;0.0;-0.374784;0.93696;0.0;-0.374784;0.93696;0.0;-0.374784;0.93696;0.0;-0.374784;0.93696;0.0;-0.374784;0.93696;0.0;-0.374784;0.93696;0.0;-0.374784;0.93696;0.0;-0.374784;0.93696;0.0;-0.374784;0.93696;0.0;-0.374784;0.93696;0.0;-0.374784;0.93696;0.0;-0.374784;0.93696;0.0;-0.374784;0.93696;0.0;-0.374784;0.93696;0.0;-0.374784;0.0;0.0;0.0;0.0;0.0;0.0;0.0;0.0;0.0;0.0;0.0;0.0;0.0;0.0;0.0;0.0;0.0;0.0;-17.92;0.0;0.0;-17.92;0.0;0.0;0.0;0.0;0.0;0.0;0.0;0.0;0.0;0.0;0.0;0.0;0.0;0.0;0.0;0.0;0.0;0.0;0.0;0.0;0.0;0.0;0.0;0.0;0.0;0.0;0.0;0.0;0.0;17.92;0.0;0.0;0.0;0.0;0.0;0.0;0.0;0.0;3.11808;1.93024;2.67264;3.11808;1.93024;2.52416;3.11808;1.93024;2.52416;3.11808;1.93024;2.67264;3.11808;1.93024;2.52416;3.11808;1.93024;2.52416;3.11808;1.93024;2.67264;3.11808;1.93024;2.67264;3.11808;2.07872;2.52416;3.11808;1.93024;2.52416;3.11808;1.93024;2.52416;3.11808;1.93024;2.52416;3.11808;1.93024;2.52416;3.11808;1.93024;2.52416;3.11808;2.07872;2.52416;3.11808;1.93024;2.52416;3.11808;1.93024;2.52416;3.11808;1.93024;2.52416;3.11808;1.93024;2.52416;3.11808;1.93024;2.67264
1728658375000;3;18.1;0;255;255;false;73;32.9250163;32.9250163;32.9250179;32.9250207;32.9250215;32.9250221;32.9250225;32.9250237;32.925022899999995;32.925025299999994;-117.2325041;-117.2325163;-117.2325299;-117.2325445;-117.2325627;-117.2325751;-117.2325907;-117.23260710000001;-117.23262430000001;-117.23263770000001;0.214;0.214;0.186;0.186;0.186;0.131;0.158;0.186;0.242;0.269;0.93696;0.0;-0.374784;0.93696;0.0;-0.374784;0.93696;0.0;-0.374784;0.93696;0.0;-0.374784;0.93696;0.0;-0.374784;0.93696;0.0;-0.374784;0.93696;0.0;-0.374784;0.93696;0.0;-0.374784;0.93696;0.0;-0.374784;0.93696;0.0;-0.374784;0.93696;0.0;-0.374784;0.93696;0.0;-0.374784;0.93696;0.0;-0.374784;0.93696;0.0;-0.374784;0.93696;0.0;-0.374784;0.93696;0.0;-0.374784;0.93696;0.0;-0.374784;0.93696;0.0;-0.374784;0.93696;0.0;-0.374784;0.93696;0.0;-0.374784;0.93696;0.0;-0.374784;0.93696;0.0;-0.374784;0.93696;0.0;-0.374784;0.93696;0.0;-0.374784;0.93696;0.0;-0.374784;0.93696;0.0;-0.374784;0.93696;0.0;-0.374784;0.93696;0.0;-0.374784;0.93696;0.0;-0.374784;0.93696;0.0;-0.374784;0.93696;0.0;-0.374784;0.93696;0.0;-0.374784;0.93696;0.0;-0.374784;0.93696;0.0;-0.374784;0.93696;0.0;-0.374784;0.93696;0.0;-0.374784;0.93696;0.0;-0.374784;0.93696;0.0;-0.374784;0.93696;0.0;-0.374784;0.93696;0.0;-0.374784;0.93696;0.0;-0.374784;0.93696;0.0;-0.374784;0.93696;0.0;-0.374784;0.93696;0.0;-0.374784;0.93696;0.0;-0.374784;0.93696;0.0;-0.374784;0.93696;0.0;-0.374784;0.93696;0.0;-0.374784;0.93696;0.0;-0.374784;0.93696;0.0;-0.374784;0.93696;0.0;-0.374784;0.93696;0.0;-0.374784;0.93696;0.0;-0.374784;0.93696;0.0;-0.374784;0.93696;0.0;-0.374784;0.93696;0.0;-0.374784;0.93696;0.0;-0.374784;0.93696;0.0;-0.374784;0.93696;0.0;-0.374784;0.93696;0.0;-0.374784;0.93696;0.0;-0.374784;0.93696;0.0;-0.374784;0.93696;0.0;-0.374784;0.93696;0.0;-0.374784;0.93696;0.0;-0.374784;0.93696;0.0;-0.374784;0.93696;0.0;-0.374784;0.93696;0.0;-0.374784;0.93696;0.0;-0.374784;0.93696;0.0;-0.374784;0.93696;0.0;-0.374784;0.93696;0.0;-0.374784;0.93696;0.0;-0.374784;0.93696;0.0;-0.374784;0.93696;0.0;-0.374784;0.93696;0.0;-0.374784;0.93696;0.0;-0.374784;0.93696;0.0;-0.374784;0.93696;0.0;-0.374784;0.93696;0.0;-0.374784;0.0;0.0;0.0;17.92;0.0;0.0;17.92;0.0;0.0;17.92;0.0;0.0;0.0;0.0;0.0;0.0;0.0;0.0;0.0;0.0;0.0;0.0;0.0;0.0;0.0;0.0;0.0;0.0;0.0;0.0;0.0;0.0;0.0;0.0;0.0;0.0;0.0;0.0;0.0;0.0;0.0;0.0;0.0;0.0;0.0;0.0;0.0;0.0;0.0;0.0;0.0;-17.92;0.0;0.0;-17.92;0.0;0.0;-17.92;0.0;0.0;3.11808;2.07872;2.52416;3.11808;1.93024;2.52416;3.11808;1.93024;2.52416;3.11808;1.93024;2.52416;3.11808;1.93024;2.52416;3.11808;1.93024;2.52416;3.11808;1.93024;2.52416;3.11808;1.93024;2.52416;3.11808;1.93024;2.67264;3.11808;1.93024;2.52416;3.11808;1.93024;2.52416;3.11808;1.93024;2.52416;3.11808;1.93024;2.67264;3.11808;1.93024;2.67264;3.11808;1.93024;2.67264;3.11808;1.93024;2.67264;3.11808;1.93024;2.52416;3.11808;1.93024;2.52416;3.11808;1.93024;2.52416;3.11808;1.93024;2.52416
1728658376000;3;18.1;0;255;255;false;73;32.9250256;32.925027;32.9250274;32.9250288;32.9250318;32.9250328;32.925033;32.925034;32.9250372;32.9250386;-117.2326496;-117.2326642;-117.2326802;-117.232698;-117.2327146;-117.232726;-117.2327412;-117.2327542;-117.2327646;-117.2327758;0.214;0.242;0.297;0.269;0.353;0.325;0.269;0.242;0.242;0.297;0.93696;0.0;-0.374784;0.93696;0.0;-0.374784;0.93696;0.0;-0.374784;0.93696;0.0;-0.374784;0.93696;0.0;-0.374784;0.93696;0.0;-0.374784;0.93696;0.0;-0.374784;0.93696;0.0;-0.374784;0.93696;0.0;-0.374784;0.93696;0.0;-0.374784;0.93696;0.0;-0.374784;0.93696;0.0;-0.374784;0.93696;0.0;-0.374784;0.93696;0.0;-0.374784;0.93696;0.0;-0.374784;0.93696;0.0;-0.374784;0.93696;0.0;-0.374784;0.93696;0.0;-0.374784;0.93696;0.0;-0.374784;0.93696;0.0;-0.374784;0.93696;0.0;-0.374784;0.93696;0.0;-0.374784;0.93696;0.0;-0.374784;0.93696;0.0;-0.374784;0.93696;0.0;-0.374784;0.93696;0.0;-0.374784;0.93696;0.0;-0.374784;0.93696;0.0;-0.374784;0.93696;0.0;-0.374784;0.93696;0.0;-0.374784;0.93696;0.0;-0.374784;0.93696;0.0;-0.374784;0.93696;0.0;-0.374784;0.93696;0.0;-0.374784;0.93696;0.0;-0.374784;0.93696;0.0;-0.374784;0.93696;0.0;-0.374784;0.93696;0.0;-0.374784;0.93696;0.0;-0.374784;0.93696;0.0;-0.374784;0.93696;0.0;-0.374784;0.93696;0.0;-0.374784;0.93696;0.0;-0.374784;0.93696;0.0;-0.374784;0.93696;0.0;-0.374784;0.93696;0.0;-0.374784;0.93696;0.0;-0.374784;0.93696;0.0;-0.374784;0.93696;0.0;-0.374784;0.93696;0.0;-0.374784;0.93696;0.0;-0.374784;0.93696;0.0;-0.374784;0.93696;0.0;-0.374784;0.93696;0.0;-0.374784;0.93696;0.0;-0.374784;0.93696;0.0;-0.374784;0.93696;0.0;-0.374784;0.93696;0.0;-0.374784;0.93696;0.0;-0.374784;0.93696;0.0;-0.374784;0.93696;0.0;-0.374784;0.93696;0.0;-0.374784;0.93696;0.0;-0.374784;0.93696;0.0;-0.374784;0.93696;0.0;-0.374784;0.93696;0.0;-0.374784;0.93696;0.0;-0.374784;0.93696;0.0;-0.374784;0.93696;0.0;-0.374784;0.93696;0.0;-0.374784;0.93696;0.0;-0.374784;0.93696;0.0;-0.374784;0.93696;0.0;-0.374784;0.93696;0.0;-0.374784;0.93696;0.0;-0.374784;0.93696;0.0;-0.374784;0.93696;0.0;-0.374784;0.93696;0.0;-0.374784;0.93696;0.0;-0.374784;0.93696;0.0;-0.374784;-17.92;0.0;0.0;0.0;0.0;0.0;0.0;0.0;0.0;0.0;0.0;0.0;0.0;0.0;0.0;0.0;0.0;0.0;0.0;0.0;0.0;0.0;0.0;0.0;0.0;0.0;0.0;0.0;0.0;0.0;0.0;0.0;0.0;0.0;0.0;0.0;0.0;0.0;0.0;0.0;0.0;0.0;0.0;0.0;0.0;0.0;0.0;0.0;0.0;0.0;0.0;0.0;0.0;0.0;0.0;0.0;0.0;0.0;0.0;0.0;3.11808;1.93024;2.52416;3.11808;1.93024;2.52416;3.11808;1.93024;2.52416;3.11808;1.93024;2.52416;3.11808;1.93024;2.52416;3.11808;1.93024;2.52416;3.11808;1.93024;2.52416;3.11808;1.93024;2.52416;3.11808;1.93024;2.52416;3.11808;1.93024;2.52416;3.11808;1.93024;2.52416;3.11808;1.93024;2.52416;3.11808;1.93024;2.52416;3.11808;1.93024;2.52416;3.11808;1.93024;2.52416;3.11808;1.93024;2.52416;3.11808;1.93024;2.52416;3.11808;1.93024;2.67264;3.11808;1.93024;2.52416;3.11808;1.93024;2.52416
